tiempo_pc,letra,pulgar,indice,corazon,anular,menique,ax,ay,az,gx,gy,gz
2026-06-13T00:24:49.274,A,21.3,100.0,67.9,65.1,86.5,1.0048,-0.1069,0.2032,0.0,0.0,0.0
2026-06-13T00:24:49.274,A,22.0,100.0,67.7,65.1,86.8,1.0065,-0.1074,0.2077,0.0,0.0,0.0
2026-06-13T00:24:49.274,A,22.3,100.0,67.5,65.2,87.1,1.0103,-0.1045,0.2126,0.0,0.0,0.0
2026-06-13T00:24:49.275,A,22.6,100.0,67.5,65.2,87.5,1.0138,-0.1015,0.2188,0.0,0.0,0.0
2026-06-13T00:24:49.275,A,22.5,100.0,67.1,65.2,87.8,1.0148,-0.1016,0.2244,0.0,0.0,0.0
2026-06-13T00:24:49.276,A,22.5,100.0,67.1,65.2,87.9,1.015,-0.1019,0.2274,0.0,0.0,0.0
2026-06-13T00:24:49.276,A,22.4,100.0,67.0,65.2,88.0,1.0123,-0.102,0.2321,0.0,0.0,0.0
2026-06-13T00:24:49.276,A,22.4,100.0,66.9,65.3,88.1,1.0086,-0.1065,0.2381,0.0,0.0,0.0
2026-06-13T00:24:49.338,A,21.6,100.0,60.9,65.5,89.5,1.006,-0.1369,0.1862,0.0,0.0,0.0
2026-06-13T00:24:49.396,A,21.7,100.0,59.5,65.5,89.5,1.0041,-0.1385,0.1892,0.0,0.0,0.0
2026-06-13T00:24:49.455,A,21.7,100.0,58.1,65.5,89.5,1.0017,-0.1392,0.1956,0.0,0.0,0.0
2026-06-13T00:24:49.514,A,21.8,100.0,57.2,65.5,89.5,0.9999,-0.1409,0.2032,0.0,0.0,0.0
2026-06-13T00:24:49.573,A,22.0,100.0,55.9,65.5,89.5,1.0017,-0.1378,0.2028,0.0,0.0,0.0
2026-06-13T00:24:49.632,A,22.1,100.0,54.4,65.5,89.5,1.0065,-0.1352,0.2019,0.0,0.0,0.0
2026-06-13T00:24:49.691,A,22.2,100.0,53.2,65.5,89.5,1.0097,-0.1341,0.2037,0.0,0.0,0.0
2026-06-13T00:24:49.750,A,22.3,100.0,51.7,65.5,89.5,1.0094,-0.1333,0.21,0.0,0.0,0.0
2026-06-13T00:24:49.809,A,22.5,100.0,50.7,65.4,89.5,1.0073,-0.1311,0.214,0.0,0.0,0.0
2026-06-13T00:24:49.869,A,22.6,100.0,49.5,65.4,89.5,1.0057,-0.1307,0.2164,0.0,0.0,0.0
2026-06-13T00:24:49.928,A,22.7,100.0,47.9,65.4,89.5,1.0047,-0.133,0.2192,0.0,0.0,0.0
2026-06-13T00:24:49.986,A,22.8,100.0,46.7,65.4,89.5,1.0036,-0.1333,0.2237,0.0,0.0,0.0
2026-06-13T00:24:50.045,A,22.9,100.0,45.9,65.4,89.5,1.0029,-0.1327,0.2274,0.0,0.0,0.0
2026-06-13T00:24:50.104,A,23.1,100.0,44.7,65.4,89.5,1.0017,-0.1326,0.2287,0.0,0.0,0.0
2026-06-13T00:24:50.163,A,23.1,100.0,43.3,65.4,89.5,1.0006,-0.1337,0.2293,0.0,0.0,0.0
2026-06-13T00:24:50.222,A,23.2,100.0,42.2,65.3,89.5,1.0006,-0.1356,0.2317,0.0,0.0,0.0
2026-06-13T00:24:50.281,A,23.1,100.0,41.3,65.3,89.4,1.0005,-0.1357,0.2344,0.0,0.0,0.0
2026-06-13T00:24:50.340,A,22.9,100.0,41.0,65.3,89.4,1.0005,-0.1353,0.2366,0.0,0.0,0.0
2026-06-13T00:24:50.399,A,22.8,100.0,40.0,65.3,89.4,0.9999,-0.1359,0.2372,0.0,0.0,0.0
2026-06-13T00:24:50.458,A,22.7,100.0,40.3,65.3,89.4,0.9999,-0.1374,0.2374,0.0,0.0,0.0
2026-06-13T00:24:50.517,A,22.5,100.0,40.4,65.3,89.3,0.9995,-0.1371,0.2383,0.0,0.0,0.0
2026-06-13T00:24:50.576,A,22.4,100.0,40.4,65.4,89.3,0.9988,-0.1377,0.2379,0.0,0.0,0.0
2026-06-13T00:24:50.635,A,22.3,100.0,40.7,65.4,88.8,0.9982,-0.1378,0.2375,0.0,0.0,0.0
2026-06-13T00:24:50.694,A,22.1,100.0,41.6,65.4,88.4,0.9985,-0.1392,0.2355,0.0,0.0,0.0
2026-06-13T00:24:50.753,A,21.8,100.0,42.9,65.3,88.3,0.9981,-0.1401,0.2352,0.0,0.0,0.0
2026-06-13T00:24:50.812,A,21.5,100.0,42.9,65.4,88.1,0.9983,-0.138,0.2344,0.0,0.0,0.0
2026-06-13T00:24:50.871,A,21.5,100.0,43.5,65.4,87.8,1.0003,-0.1407,0.2317,0.0,0.0,0.0
2026-06-13T00:24:50.930,A,22.1,100.0,46.8,65.5,87.2,0.9944,-0.1403,0.2361,0.0,0.0,0.0
2026-06-13T00:24:50.989,A,22.1,100.0,49.7,65.7,86.6,0.9987,-0.1438,0.2368,0.0,0.0,0.0
2026-06-13T00:24:51.049,A,22.3,100.0,52.4,65.7,86.4,0.9977,-0.1451,0.2387,0.0,0.0,0.0
2026-06-13T00:24:51.107,A,22.4,100.0,55.4,65.8,86.1,0.9989,-0.1464,0.2363,0.0,0.0,0.0
2026-06-13T00:24:51.166,A,22.5,100.0,58.7,65.9,85.9,0.9989,-0.1475,0.2355,0.0,0.0,0.0
2026-06-13T00:24:51.225,A,22.6,100.0,63.2,66.1,85.6,0.9969,-0.1471,0.2364,0.0,0.0,0.0
2026-06-13T00:24:51.284,A,22.6,100.0,66.5,66.3,85.1,0.9983,-0.1491,0.2353,0.0,0.0,0.0
2026-06-13T00:24:51.343,A,22.5,100.0,69.3,66.5,84.8,0.9981,-0.1516,0.2378,0.0,0.0,0.0
2026-06-13T00:24:51.402,A,22.4,100.0,72.5,66.8,84.4,0.9977,-0.1527,0.2369,0.0,0.0,0.0
2026-06-13T00:24:51.462,A,22.4,100.0,75.8,67.2,84.3,0.9979,-0.1537,0.2355,0.0,0.0,0.0
2026-06-13T00:24:51.520,A,22.0,100.0,79.4,67.6,84.2,0.9974,-0.1542,0.2358,0.0,0.0,0.0
2026-06-13T00:24:51.579,A,21.8,100.0,83.2,68.1,84.0,0.997,-0.1551,0.2359,0.0,0.0,0.0
2026-06-13T00:24:51.638,A,21.4,100.0,87.2,68.6,83.9,0.996,-0.1563,0.237,0.0,0.0,0.0
2026-06-13T00:24:51.697,A,20.9,100.0,91.3,69.0,83.8,0.9963,-0.1562,0.2367,0.0,0.0,0.0
2026-06-13T00:24:51.756,A,20.6,100.0,95.4,69.2,83.6,0.9968,-0.1569,0.2368,0.0,0.0,0.0
2026-06-13T00:24:51.815,A,20.4,100.0,98.9,69.2,83.4,0.9968,-0.157,0.2386,0.0,0.0,0.0
2026-06-13T00:24:51.875,A,20.5,100.0,100.0,69.3,83.2,0.9969,-0.1577,0.2392,0.0,0.0,0.0
2026-06-13T00:24:51.933,A,20.8,100.0,100.0,69.3,82.9,0.9967,-0.1598,0.2378,0.0,0.0,0.0
2026-06-13T00:24:51.992,A,21.1,100.0,100.0,69.4,82.6,0.9956,-0.1605,0.2374,0.0,0.0,0.0
2026-06-13T00:24:52.052,A,21.3,100.0,100.0,69.4,82.3,0.9945,-0.1612,0.2373,0.0,0.0,0.0
2026-06-13T00:24:52.110,A,21.3,100.0,100.0,69.2,82.3,0.9942,-0.1624,0.2367,0.0,0.0,0.0
2026-06-13T00:24:52.169,A,21.4,100.0,100.0,68.9,82.4,0.9944,-0.1632,0.2361,0.0,0.0,0.0
2026-06-13T00:24:52.228,A,21.6,100.0,100.0,68.7,82.3,0.9953,-0.1634,0.235,0.0,0.0,0.0
2026-06-13T00:24:52.287,A,21.9,100.0,100.0,68.8,82.2,0.9949,-0.1624,0.2357,0.0,0.0,0.0
2026-06-13T00:24:52.346,A,22.1,100.0,100.0,69.1,82.2,0.9954,-0.1624,0.234,0.0,0.0,0.0
2026-06-13T00:24:52.406,A,22.2,100.0,100.0,69.1,82.6,0.9954,-0.164,0.2327,0.0,0.0,0.0
2026-06-13T00:24:52.465,A,22.3,100.0,100.0,69.2,82.9,0.9953,-0.1645,0.2321,0.0,0.0,0.0
2026-06-13T00:24:52.523,A,22.3,100.0,100.0,69.4,82.9,0.9956,-0.1619,0.2317,0.0,0.0,0.0
2026-06-13T00:24:52.583,A,22.3,100.0,100.0,69.5,82.9,0.9956,-0.1621,0.2312,0.0,0.0,0.0
2026-06-13T00:24:52.641,A,22.4,100.0,100.0,69.5,82.9,0.9957,-0.1633,0.231,0.0,0.0,0.0
2026-06-13T00:24:52.700,A,22.7,100.0,100.0,69.6,83.0,0.9961,-0.1624,0.2304,0.0,0.0,0.0
2026-06-13T00:24:52.759,A,22.8,100.0,100.0,69.5,83.2,0.9964,-0.162,0.2287,0.0,0.0,0.0
2026-06-13T00:24:52.818,A,22.9,100.0,100.0,69.4,83.3,0.9964,-0.1623,0.2292,0.0,0.0,0.0
2026-06-13T00:24:52.877,A,22.9,100.0,100.0,69.3,83.6,0.9966,-0.1623,0.2284,0.0,0.0,0.0
2026-06-13T00:24:52.936,A,23.0,100.0,100.0,69.0,83.4,0.997,-0.162,0.2289,0.0,0.0,0.0
2026-06-13T00:24:52.995,A,23.1,100.0,100.0,68.7,83.3,0.9978,-0.1613,0.2288,0.0,0.0,0.0
2026-06-13T00:24:53.054,A,23.1,100.0,100.0,68.4,83.3,0.9975,-0.1607,0.2294,0.0,0.0,0.0
2026-06-13T00:24:53.113,A,23.1,100.0,100.0,68.2,83.2,0.9974,-0.1607,0.2287,0.0,0.0,0.0
2026-06-13T00:24:53.172,A,23.1,100.0,100.0,68.0,83.1,0.9978,-0.1604,0.2259,0.0,0.0,0.0
2026-06-13T00:24:53.232,A,23.1,100.0,100.0,68.0,83.1,0.9981,-0.1598,0.2266,0.0,0.0,0.0
2026-06-13T00:24:53.291,A,23.1,100.0,100.0,68.2,83.1,0.999,-0.1589,0.2265,0.0,0.0,0.0
2026-06-13T00:24:53.349,A,23.2,100.0,100.0,68.4,83.1,1.0,-0.1604,0.2273,0.0,0.0,0.0
2026-06-13T00:24:53.408,A,23.2,100.0,100.0,68.5,83.1,1.0002,-0.1613,0.2264,0.0,0.0,0.0
2026-06-13T00:24:53.468,A,23.3,100.0,100.0,68.7,83.3,1.0003,-0.161,0.2257,0.0,0.0,0.0
2026-06-13T00:24:53.526,A,23.3,100.0,100.0,68.8,83.4,0.9991,-0.1616,0.2258,0.0,0.0,0.0
2026-06-13T00:24:53.586,A,23.4,100.0,100.0,69.3,83.7,0.9978,-0.1636,0.2259,0.0,0.0,0.0
2026-06-13T00:24:53.644,A,23.4,100.0,100.0,69.8,83.7,0.9973,-0.164,0.2245,0.0,0.0,0.0
2026-06-13T00:24:53.703,A,23.5,100.0,100.0,70.3,83.8,0.9978,-0.1638,0.224,0.0,0.0,0.0
2026-06-13T00:24:53.762,A,23.6,100.0,100.0,70.3,83.8,0.9982,-0.1633,0.2247,0.0,0.0,0.0
2026-06-13T00:24:53.822,A,23.7,100.0,100.0,70.3,83.9,0.9988,-0.1625,0.2254,0.0,0.0,0.0
2026-06-13T00:24:53.880,A,23.7,100.0,100.0,70.2,83.9,0.9978,-0.1632,0.2252,0.0,0.0,0.0
2026-06-13T00:24:53.940,A,23.7,100.0,100.0,70.1,84.0,0.9999,-0.1654,0.222,0.0,0.0,0.0
2026-06-13T00:24:53.998,A,23.8,100.0,100.0,70.0,84.0,1.0057,-0.1669,0.221,0.0,0.0,0.0
2026-06-13T00:24:54.057,A,23.8,100.0,100.0,70.0,84.0,1.008,-0.1652,0.2237,0.0,0.0,0.0
2026-06-13T00:24:54.117,A,23.8,100.0,100.0,70.0,84.0,1.0059,-0.1661,0.2279,0.0,0.0,0.0
2026-06-13T00:24:54.175,A,23.9,100.0,100.0,70.0,83.8,0.9986,-0.1713,0.228,0.0,0.0,0.0
2026-06-13T00:24:54.234,A,23.9,100.0,100.0,70.0,83.6,0.9917,-0.1725,0.2257,0.0,0.0,0.0
2026-06-13T00:24:54.293,A,23.8,100.0,100.0,70.0,83.4,0.9877,-0.1691,0.2245,0.0,0.0,0.0
2026-06-13T00:24:54.352,A,23.9,100.0,100.0,70.0,83.2,0.9866,-0.1627,0.2245,0.0,0.0,0.0
2026-06-13T00:24:54.411,A,23.8,100.0,100.0,70.1,83.0,0.9907,-0.1652,0.2223,0.0,0.0,0.0
2026-06-13T00:24:54.470,A,23.8,100.0,100.0,70.1,82.8,1.0064,-0.177,0.2167,0.0,0.0,0.0
2026-06-13T00:24:54.529,A,23.8,100.0,100.0,70.1,82.6,1.0362,-0.1854,0.2077,0.0,0.0,0.0
2026-06-13T00:24:54.588,A,23.7,100.0,100.0,70.1,82.5,1.0432,-0.1921,0.2065,0.0,0.0,0.0
2026-06-13T00:24:54.647,A,23.6,100.0,100.0,70.1,82.1,1.0233,-0.1981,0.2118,0.0,0.0,0.0
2026-06-13T00:24:54.706,A,23.5,99.9,100.0,70.1,82.0,0.9868,-0.2046,0.2179,0.0,0.0,0.0
2026-06-13T00:24:54.765,A,23.4,99.7,100.0,70.1,81.3,0.9516,-0.2097,0.2164,0.0,0.0,0.0
2026-06-13T00:24:54.825,A,23.4,99.5,100.0,70.1,80.9,0.9361,-0.2133,0.2139,0.0,0.0,0.0
2026-06-13T00:24:54.884,A,23.3,99.3,100.0,70.1,80.7,0.9437,-0.2203,0.2189,0.0,0.0,0.0
2026-06-13T00:24:54.942,A,23.3,99.2,100.0,70.1,80.3,0.9677,-0.2174,0.2262,0.0,0.0,0.0
2026-06-13T00:24:55.002,A,23.3,99.6,100.0,70.1,80.2,1.0045,-0.2186,0.2313,0.0,0.0,0.0
2026-06-13T00:24:55.061,A,23.3,99.8,100.0,70.1,80.1,1.0189,-0.2233,0.2431,0.0,0.0,0.0
2026-06-13T00:24:55.120,A,23.4,99.9,100.0,70.2,80.0,1.0077,-0.2229,0.2483,0.0,0.0,0.0
2026-06-13T00:24:55.178,A,23.4,99.9,100.0,70.2,79.8,0.9836,-0.2193,0.2419,0.0,0.0,0.0
2026-06-13T00:24:55.237,A,23.4,100.0,100.0,70.2,79.7,0.957,-0.2214,0.2361,0.0,0.0,0.0
2026-06-13T00:24:55.296,A,23.5,100.0,100.0,70.2,79.6,0.9407,-0.2285,0.2324,0.0,0.0,0.0
2026-06-13T00:24:55.355,A,23.5,100.0,100.0,70.3,79.2,0.9488,-0.2298,0.2219,0.0,0.0,0.0
2026-06-13T00:24:55.414,A,23.5,100.0,100.0,70.3,78.7,0.983,-0.227,0.2157,0.0,0.0,0.0
2026-06-13T00:24:55.474,A,23.6,100.0,100.0,70.3,78.4,1.0174,-0.2192,0.2257,0.0,0.0,0.0
2026-06-13T00:24:55.532,A,23.6,100.0,100.0,70.4,78.1,1.0094,-0.2212,0.2477,0.0,0.0,0.0
2026-06-13T00:24:55.592,A,23.5,100.0,100.0,70.4,78.1,0.9828,-0.2237,0.251,0.0,0.0,0.0
2026-06-13T00:24:55.651,A,23.5,100.0,100.0,70.5,78.3,0.9606,-0.2161,0.2396,0.0,0.0,0.0
2026-06-13T00:24:55.710,A,23.5,100.0,100.0,70.5,78.6,0.9539,-0.2101,0.2284,0.0,0.0,0.0
2026-06-13T00:24:55.768,A,23.5,100.0,100.0,70.6,78.8,0.9645,-0.2066,0.223,0.0,0.0,0.0
2026-06-13T00:24:55.827,A,23.6,100.0,100.0,70.6,78.9,0.994,-0.202,0.222,0.0,0.0,0.0
2026-06-13T00:24:55.887,A,23.6,100.0,100.0,70.7,79.1,1.0129,-0.1917,0.2348,0.0,0.0,0.0
2026-06-13T00:24:55.946,A,23.7,100.0,100.0,70.7,78.8,1.0032,-0.1833,0.2516,0.0,0.0,0.0
2026-06-13T00:24:56.005,A,23.8,100.0,100.0,70.8,78.9,0.9868,-0.1844,0.2429,0.0,0.0,0.0
2026-06-13T00:24:56.064,A,23.9,100.0,100.0,70.8,79.0,0.9754,-0.1929,0.2336,0.0,0.0,0.0
2026-06-13T00:24:56.122,A,24.0,100.0,100.0,70.9,79.4,0.9732,-0.1891,0.2235,0.0,0.0,0.0
2026-06-13T00:24:56.181,A,24.1,100.0,100.0,70.9,79.5,0.9756,-0.1812,0.2246,0.0,0.0,0.0
2026-06-13T00:24:56.241,A,24.2,100.0,100.0,71.0,80.2,0.9933,-0.1718,0.2272,0.0,0.0,0.0
2026-06-13T00:24:56.300,A,24.3,100.0,100.0,71.0,80.4,1.0114,-0.1653,0.2334,0.0,0.0,0.0
2026-06-13T00:24:56.358,A,24.4,100.0,100.0,71.1,80.6,1.0084,-0.1679,0.2359,0.0,0.0,0.0
2026-06-13T00:24:56.418,A,24.5,100.0,100.0,71.1,80.9,0.9959,-0.1807,0.2255,0.0,0.0,0.0
2026-06-13T00:24:56.477,A,24.6,100.0,100.0,71.1,80.8,0.9892,-0.195,0.2058,0.0,0.0,0.0
2026-06-13T00:24:56.536,A,24.6,100.0,100.0,71.1,80.6,0.9865,-0.193,0.1905,0.0,0.0,0.0
2026-06-13T00:24:56.595,A,24.7,100.0,100.0,71.1,80.6,0.9885,-0.1802,0.1927,0.0,0.0,0.0
2026-06-13T00:24:56.653,A,24.6,100.0,100.0,71.1,80.6,1.0001,-0.1666,0.194,0.0,0.0,0.0
2026-06-13T00:24:56.712,A,24.6,100.0,100.0,71.2,80.6,1.0108,-0.1515,0.199,0.0,0.0,0.0
2026-06-13T00:24:56.772,A,24.6,100.0,100.0,71.2,80.5,1.0107,-0.1443,0.2114,0.0,0.0,0.0
2026-06-13T00:24:56.831,A,24.6,100.0,100.0,71.2,80.8,0.9996,-0.1489,0.2248,0.0,0.0,0.0
2026-06-13T00:24:56.890,A,24.5,100.0,100.0,71.2,81.1,0.9922,-0.1628,0.2235,0.0,0.0,0.0
2026-06-13T00:24:56.949,A,24.5,100.0,100.0,71.2,81.1,0.9963,-0.1649,0.2161,0.0,0.0,0.0
2026-06-13T00:24:57.008,A,24.5,100.0,100.0,71.3,81.1,1.0012,-0.1677,0.2122,0.0,0.0,0.0
2026-06-13T00:24:57.067,A,24.4,100.0,100.0,71.3,80.8,1.004,-0.1648,0.2055,0.0,0.0,0.0
2026-06-13T00:24:57.126,A,24.5,100.0,100.0,71.3,80.7,1.0026,-0.1608,0.2089,0.0,0.0,0.0
2026-06-13T00:24:57.185,A,24.5,100.0,100.0,71.2,80.4,0.9977,-0.1569,0.2139,0.0,0.0,0.0
2026-06-13T00:24:57.244,A,24.5,100.0,100.0,71.2,80.2,0.9958,-0.1639,0.2135,0.0,0.0,0.0
2026-06-13T00:24:57.303,A,24.5,100.0,100.0,71.2,80.2,0.9968,-0.1646,0.2073,0.0,0.0,0.0
2026-06-13T00:24:57.362,A,24.5,100.0,100.0,71.1,80.1,1.0005,-0.1607,0.2052,0.0,0.0,0.0
2026-06-13T00:24:57.421,A,24.5,100.0,100.0,71.1,80.5,1.005,-0.1633,0.2071,0.0,0.0,0.0
2026-06-13T00:24:57.480,A,24.5,100.0,100.0,71.1,80.4,1.0077,-0.1693,0.2049,0.0,0.0,0.0
2026-06-13T00:24:57.539,A,24.5,100.0,100.0,71.1,80.3,1.005,-0.1707,0.2034,0.0,0.0,0.0
2026-06-13T00:24:57.598,A,24.5,100.0,100.0,71.1,80.2,0.9983,-0.1725,0.2006,0.0,0.0,0.0
2026-06-13T00:24:57.657,A,24.5,100.0,100.0,71.1,80.1,0.9956,-0.1766,0.1957,0.0,0.0,0.0
2026-06-13T00:24:57.716,A,24.5,100.0,100.0,71.1,80.0,0.9969,-0.1808,0.1916,0.0,0.0,0.0
2026-06-13T00:24:57.774,A,24.4,100.0,100.0,71.1,80.0,1.0002,-0.1772,0.1896,0.0,0.0,0.0
2026-06-13T00:24:57.834,A,24.5,100.0,100.0,71.1,80.0,1.0003,-0.1714,0.1942,0.0,0.0,0.0
2026-06-13T00:24:57.893,A,24.5,100.0,100.0,71.2,80.0,0.9992,-0.1739,0.1972,0.0,0.0,0.0
2026-06-13T00:24:57.952,A,24.4,100.0,100.0,71.2,80.0,0.9989,-0.1855,0.1939,0.0,0.0,0.0
2026-06-13T00:24:58.011,A,24.4,100.0,100.0,71.3,80.1,0.9993,-0.1889,0.1832,0.0,0.0,0.0
2026-06-13T00:24:58.070,A,24.3,100.0,100.0,71.3,80.1,0.9996,-0.1821,0.1802,0.0,0.0,0.0
2026-06-13T00:24:58.129,A,24.3,100.0,100.0,71.4,80.1,1.0002,-0.1788,0.1838,0.0,0.0,0.0
2026-06-13T00:24:58.188,A,24.3,100.0,100.0,71.5,80.1,1.0005,-0.186,0.1859,0.0,0.0,0.0
2026-06-13T00:24:58.247,A,24.2,100.0,100.0,71.7,80.2,1.0012,-0.1924,0.1803,0.0,0.0,0.0
2026-06-13T00:24:58.306,A,24.3,100.0,100.0,71.8,80.3,1.0016,-0.1873,0.1779,0.0,0.0,0.0
2026-06-13T00:24:58.365,A,24.3,100.0,100.0,71.9,80.4,1.0031,-0.1824,0.1806,0.0,0.0,0.0
2026-06-13T00:24:58.424,A,24.3,100.0,100.0,72.1,80.7,1.0032,-0.1883,0.1808,0.0,0.0,0.0
2026-06-13T00:24:58.483,A,24.3,100.0,100.0,72.2,81.0,0.9996,-0.1955,0.1753,0.0,0.0,0.0
2026-06-13T00:24:58.542,A,24.3,100.0,100.0,72.4,81.3,0.9959,-0.1946,0.1729,0.0,0.0,0.0
2026-06-13T00:24:58.601,A,24.3,100.0,100.0,72.5,81.5,0.9962,-0.1945,0.1755,0.0,0.0,0.0
2026-06-13T00:24:58.660,A,24.3,100.0,100.0,72.6,81.7,0.9996,-0.197,0.1805,0.0,0.0,0.0
2026-06-13T00:24:58.719,A,24.3,100.0,100.0,72.7,81.7,0.9999,-0.2002,0.1773,0.0,0.0,0.0
2026-06-13T00:24:58.778,A,24.4,100.0,100.0,72.8,81.7,0.9968,-0.1961,0.1732,0.0,0.0,0.0
2026-06-13T00:24:58.837,A,24.4,100.0,100.0,72.9,81.6,0.9946,-0.1943,0.1765,0.0,0.0,0.0
2026-06-13T00:24:58.896,A,24.4,100.0,100.0,72.9,81.7,0.9958,-0.1969,0.1812,0.0,0.0,0.0
2026-06-13T00:24:58.955,A,24.4,100.0,100.0,72.9,81.7,0.9983,-0.2051,0.1784,0.0,0.0,0.0
2026-06-13T00:24:59.014,A,24.5,100.0,100.0,73.0,81.7,0.9986,-0.2018,0.1712,0.0,0.0,0.0
2026-06-13T00:24:59.073,A,24.5,100.0,100.0,73.0,81.6,0.9985,-0.1942,0.1729,0.0,0.0,0.0
2026-06-13T00:24:59.132,A,24.4,100.0,100.0,73.0,81.6,1.0003,-0.1926,0.1792,0.0,0.0,0.0
2026-06-13T00:24:59.191,A,24.4,100.0,100.0,73.0,81.5,0.9988,-0.2024,0.1792,0.0,0.0,0.0
2026-06-13T00:24:59.250,A,24.5,100.0,100.0,73.0,81.4,0.9959,-0.204,0.1707,0.0,0.0,0.0
2026-06-13T00:24:59.309,A,24.5,100.0,100.0,73.0,81.3,0.9954,-0.1997,0.1671,0.0,0.0,0.0
2026-06-13T00:25:30.835,B,24.4,0.0,0.0,0.0,0.0,0.2909,0.9543,-0.0894,0.0,0.0,0.0
2026-06-13T00:25:30.997,B,24.3,0.0,0.0,0.0,0.0,0.2903,0.9533,-0.0889,0.0,0.0,0.0
2026-06-13T00:25:31.159,B,24.4,0.0,0.0,0.0,0.0,0.2893,0.9549,-0.088,0.0,0.0,0.0
2026-06-13T00:25:31.321,B,24.4,0.0,0.0,0.0,0.0,0.2886,0.9536,-0.0865,0.0,0.0,0.0
2026-06-13T00:25:31.483,B,24.5,0.0,0.0,0.0,0.0,0.2875,0.955,-0.086,0.0,0.0,0.0
2026-06-13T00:25:31.645,B,24.6,0.0,0.0,0.0,0.0,0.2865,0.9572,-0.0857,0.0,0.0,0.0
2026-06-13T00:25:31.807,B,24.6,0.0,0.0,0.0,0.0,0.2861,0.9581,-0.0862,0.0,0.0,0.0
2026-06-13T00:25:31.969,B,24.6,0.0,0.0,0.0,0.0,0.2868,0.958,-0.0847,0.0,0.0,0.0
2026-06-13T00:25:32.131,B,24.7,0.0,0.0,0.0,0.0,0.2863,0.9584,-0.0846,0.0,0.0,0.0
2026-06-13T00:25:32.293,B,24.7,0.0,0.0,0.0,0.0,0.2853,0.959,-0.0809,0.0,0.0,0.0
2026-06-13T00:25:32.455,B,24.8,0.0,0.0,0.0,0.0,0.2865,0.9592,-0.0804,0.0,0.0,0.0
2026-06-13T00:25:32.617,B,24.8,0.0,0.0,0.0,0.0,0.2872,0.9592,-0.0809,0.0,0.0,0.0
2026-06-13T00:25:32.779,B,24.9,0.0,0.0,0.0,0.0,0.2881,0.9605,-0.0792,0.0,0.0,0.0
2026-06-13T00:25:32.941,B,24.9,0.0,0.0,0.0,0.0,0.2882,0.961,-0.0785,0.0,0.0,0.0
2026-06-13T00:25:33.103,B,24.9,0.0,0.0,0.0,0.0,0.2874,0.9611,-0.0771,0.0,0.0,0.0
2026-06-13T00:25:33.265,B,24.8,0.0,0.0,0.0,0.0,0.2893,0.9605,-0.0751,0.0,0.0,0.0
2026-06-13T00:25:33.427,B,24.8,0.0,0.0,0.0,0.0,0.291,0.96,-0.0746,0.0,0.0,0.0
2026-06-13T00:25:33.589,B,24.8,0.0,0.0,0.0,0.0,0.2904,0.9606,-0.0734,0.0,0.0,0.0
2026-06-13T00:25:33.751,B,24.8,0.0,0.0,0.0,0.0,0.2916,0.9606,-0.0708,0.0,0.0,0.0
2026-06-13T00:25:33.913,B,24.7,0.0,0.0,0.0,0.0,0.2908,0.9618,-0.068,0.0,0.0,0.0
2026-06-13T00:25:34.075,B,24.6,0.0,0.0,0.0,0.0,0.2922,0.9602,-0.0683,0.0,0.0,0.0
2026-06-13T00:25:34.237,B,24.7,0.0,0.0,0.0,0.0,0.2915,0.9553,-0.06,0.0,0.0,0.0
2026-06-13T00:25:34.399,B,24.7,0.0,0.0,0.0,0.0,0.2916,0.9592,-0.0614,0.0,0.0,0.0
2026-06-13T00:25:34.561,B,24.7,0.0,0.0,0.0,0.0,0.2939,0.9571,-0.0609,0.0,0.0,0.0
2026-06-13T00:25:34.723,B,24.6,0.0,0.0,0.0,0.0,0.2926,0.9572,-0.0537,0.0,0.0,0.0
2026-06-13T00:25:34.885,B,24.5,0.0,0.0,0.0,0.0,0.2937,0.958,-0.0584,0.0,0.0,0.0
2026-06-13T00:25:35.047,B,24.3,0.0,0.0,0.0,0.0,0.2922,0.9592,-0.0533,0.0,0.0,0.0
2026-06-13T00:25:35.209,B,24.2,0.0,0.0,0.0,0.0,0.292,0.9593,-0.0508,0.0,0.0,0.0
2026-06-13T00:25:35.371,B,24.0,0.0,0.0,0.0,0.0,0.2977,0.9587,-0.0533,0.0,0.0,0.0
2026-06-13T00:25:35.533,B,23.9,0.0,0.0,0.0,0.0,0.298,0.9598,-0.0451,0.0,0.0,0.0
2026-06-13T00:25:35.695,B,23.8,0.0,0.0,0.0,0.0,0.298,0.9605,-0.0456,0.0,0.0,0.0
2026-06-13T00:25:35.857,B,23.6,0.0,0.0,0.0,0.0,0.2975,0.9586,-0.0509,0.0,0.0,0.0
2026-06-13T00:25:36.019,B,23.5,0.0,0.0,0.0,0.0,0.2964,0.9577,-0.0425,0.0,0.0,0.0
2026-06-13T00:25:36.181,B,23.5,0.0,0.0,0.0,0.0,0.2968,0.9604,-0.0479,0.0,0.0,0.0
2026-06-13T00:25:36.343,B,23.6,0.0,0.0,0.0,0.0,0.2989,0.9592,-0.053,0.0,0.0,0.0
2026-06-13T00:25:36.505,B,23.6,0.0,0.0,0.0,0.0,0.2979,0.9564,-0.0459,0.0,0.0,0.0
2026-06-13T00:25:36.667,B,23.7,0.0,0.0,0.0,0.0,0.2983,0.959,-0.0516,0.0,0.0,0.0
2026-06-13T00:25:36.829,B,23.7,0.0,0.0,0.0,0.0,0.2986,0.9577,-0.0519,0.0,0.0,0.0
2026-06-13T00:25:36.991,B,23.7,0.0,0.0,0.0,0.0,0.298,0.9545,-0.0462,0.0,0.0,0.0
2026-06-13T00:25:37.153,B,23.7,0.0,0.0,0.0,0.0,0.2977,0.9559,-0.0526,0.0,0.0,0.0
2026-06-13T00:25:37.315,B,23.7,0.0,0.0,0.0,0.0,0.3004,0.9506,-0.0484,0.0,0.0,0.0
2026-06-13T00:25:37.477,B,23.8,0.0,0.0,0.0,0.0,0.2988,0.9537,-0.0463,0.0,0.0,0.0
2026-06-13T00:25:37.639,B,23.8,0.0,0.0,0.0,0.0,0.2998,0.9543,-0.0496,0.0,0.0,0.0
2026-06-13T00:25:37.801,B,23.6,0.0,0.0,0.0,0.0,0.2998,0.9556,-0.0478,0.0,0.0,0.0
2026-06-13T00:25:37.963,B,23.5,0.0,0.0,0.0,0.0,0.3017,0.9546,-0.0474,0.0,0.0,0.0
2026-06-13T00:25:38.125,B,23.6,0.0,0.0,0.0,0.0,0.3045,0.9534,-0.0459,0.0,0.0,0.0
2026-06-13T00:25:38.287,B,23.5,0.0,0.0,0.0,0.0,0.3053,0.9554,-0.0441,0.0,0.0,0.0
2026-06-13T00:25:38.449,B,23.4,0.0,0.0,0.0,0.0,0.307,0.9541,-0.0404,0.0,0.0,0.0
2026-06-13T00:25:38.611,B,23.5,0.0,0.0,0.0,0.0,0.3076,0.9558,-0.0405,0.0,0.0,0.0
2026-06-13T00:25:38.773,B,23.5,0.0,0.0,0.0,0.0,0.3088,0.9559,-0.0406,0.0,0.0,0.0
2026-06-13T00:25:38.935,B,23.4,0.0,0.0,0.0,0.0,0.3097,0.9573,-0.0413,0.0,0.0,0.0
2026-06-13T00:25:39.097,B,23.2,0.0,0.0,0.0,0.0,0.3114,0.9555,-0.041,0.0,0.0,0.0
2026-06-13T00:25:39.259,B,23.1,0.0,0.0,0.0,0.0,0.3123,0.9575,-0.0398,0.0,0.0,0.0
2026-06-13T00:25:39.421,B,23.2,0.0,0.0,0.0,0.0,0.3131,0.9567,-0.0386,0.0,0.0,0.0
2026-06-13T00:25:39.583,B,23.2,0.0,0.0,0.0,0.0,0.3117,0.9579,-0.0395,0.0,0.0,0.0
2026-06-13T00:25:39.745,B,23.1,0.0,0.0,0.0,0.0,0.3131,0.9565,-0.0376,0.0,0.0,0.0
2026-06-13T00:25:39.907,B,23.1,0.0,0.0,0.0,0.0,0.3136,0.958,-0.037,0.0,0.0,0.0
2026-06-13T00:25:40.069,B,23.1,0.0,0.0,0.0,0.0,0.3138,0.9586,-0.037,0.0,0.0,0.0
2026-06-13T00:25:40.231,B,23.0,0.0,0.0,0.0,0.0,0.3185,0.9595,-0.0349,0.0,0.0,0.0
2026-06-13T00:25:40.393,B,23.0,0.0,0.0,0.0,0.0,0.3212,0.9612,-0.0312,0.0,0.0,0.0
2026-06-13T00:25:40.555,B,23.1,0.0,0.0,0.0,0.0,0.3225,0.9621,-0.0318,0.0,0.0,0.0
2026-06-13T00:25:40.717,B,23.3,0.0,0.0,0.0,0.0,0.3218,0.9622,-0.0284,0.0,0.0,0.0
2026-06-13T00:25:59.833,C,0.0,0.0,47.5,65.5,44.3,0.842,0.0248,0.6214,0.0,-6.5386,0.0
2026-06-13T00:25:59.995,C,0.0,0.0,47.3,65.5,44.0,0.844,0.0204,0.6173,0.0,-6.4307,0.0
2026-06-13T00:26:00.157,C,0.0,0.0,47.1,65.6,43.7,0.8427,0.0203,0.6222,0.0,-6.4198,0.0
2026-06-13T00:26:00.319,C,0.0,0.0,46.9,65.6,43.4,0.8454,0.0211,0.6182,0.0,-6.165,0.0
2026-06-13T00:26:00.481,C,0.0,0.0,46.7,65.6,43.0,0.8458,0.018,0.6172,0.0,-6.222,0.0
2026-06-13T00:26:00.644,C,0.0,0.0,46.5,65.7,42.6,0.845,0.0168,0.6173,0.0,-6.2183,0.0
2026-06-13T00:26:00.805,C,0.0,0.0,46.3,65.7,42.4,0.8457,0.0181,0.6181,0.0,-6.2676,0.0
2026-06-13T00:26:00.967,C,0.0,0.0,46.0,65.8,42.5,0.8463,0.0117,0.614,0.0,-6.4486,0.0
2026-06-13T00:26:01.130,C,0.0,0.0,46.3,65.9,42.1,0.8464,0.013,0.616,0.0,-6.2849,0.0
2026-06-13T00:26:01.291,C,0.0,0.0,46.3,66.1,42.0,0.847,0.0128,0.6141,0.0,-6.2779,0.0
2026-06-13T00:26:01.454,C,0.0,0.0,45.6,66.2,41.9,0.8457,0.0096,0.6158,0.0,-6.1778,0.0
2026-06-13T00:26:01.616,C,0.0,0.0,44.4,66.3,41.8,0.846,0.0078,0.6149,0.0,-6.1724,0.0
2026-06-13T00:26:01.777,C,0.0,0.0,43.5,66.5,42.0,0.8471,0.0083,0.6155,0.0,-6.3255,0.0
2026-06-13T00:26:01.939,C,0.0,0.0,43.5,66.7,42.3,0.8454,0.0093,0.6147,0.0,-6.1458,0.0
2026-06-13T00:26:02.101,C,0.0,0.0,43.6,66.9,42.6,0.8458,0.0092,0.614,0.0,-6.094,0.0
2026-06-13T00:26:02.263,C,0.0,9.3,43.6,67.2,43.1,0.8465,0.0091,0.6144,0.0,-6.2015,0.0
2026-06-13T00:26:02.425,C,0.0,20.4,43.3,67.4,43.7,0.8474,0.0086,0.6139,0.0,-6.3777,0.0
2026-06-13T00:26:02.587,C,0.0,33.9,43.0,67.5,44.5,0.8478,0.0064,0.6121,0.0,-6.7104,0.0
2026-06-13T00:26:02.749,C,0.0,44.6,42.7,67.7,44.8,0.8505,0.0016,0.6051,0.0,-6.7418,0.0
2026-06-13T00:26:02.912,C,0.0,53.9,42.5,67.8,45.0,0.8528,0.003,0.6017,0.0,-6.583,0.0
2026-06-13T00:26:03.073,C,0.0,62.6,42.0,67.8,45.2,0.8529,0.0035,0.6039,0.0,-6.2554,0.0
2026-06-13T00:26:03.235,C,0.0,70.5,41.7,67.9,45.5,0.8547,0.0072,0.6004,0.0,-5.7613,0.0
2026-06-13T00:26:03.397,C,0.0,76.1,41.6,67.9,45.7,0.8533,0.0099,0.6056,0.0,-5.5136,0.0
2026-06-13T00:26:03.560,C,0.0,80.3,41.4,67.9,45.9,0.8525,0.0135,0.6058,0.0,-5.4502,0.0
2026-06-13T00:26:03.722,C,0.0,83.7,41.2,67.9,46.0,0.8508,0.0147,0.6096,0.0,-5.4115,0.0
2026-06-13T00:26:03.883,C,0.0,86.3,40.9,67.9,46.0,0.8493,0.0136,0.6107,0.0,-5.4873,0.0
2026-06-13T00:26:04.045,C,0.0,88.0,40.7,67.9,46.1,0.8491,0.0147,0.6122,0.0,-5.4715,0.0
2026-06-13T00:26:04.207,C,0.0,89.2,40.6,67.9,46.2,0.8476,0.0144,0.6138,0.0,-5.4978,0.0
2026-06-13T00:26:04.370,C,0.0,90.0,40.5,68.0,46.2,0.847,0.0143,0.6149,0.0,-5.6604,0.0
2026-06-13T00:26:04.531,C,0.0,90.4,40.4,68.1,46.4,0.8466,0.0147,0.6155,0.0,-5.7434,0.0
2026-06-13T00:26:04.694,C,0.0,90.6,40.5,68.1,46.6,0.8463,0.0133,0.616,0.0,-5.854,0.0
2026-06-13T00:26:04.856,C,0.0,90.8,40.4,68.0,46.6,0.8456,0.0129,0.616,0.0,-5.8458,0.0
2026-06-13T00:26:05.018,C,0.0,90.8,40.3,68.0,46.4,0.8459,0.0126,0.6152,0.0,-5.8958,0.0
2026-06-13T00:26:05.179,C,0.0,90.8,38.7,67.9,46.6,0.8457,0.0104,0.6173,0.0,-6.2705,0.0
2026-06-13T00:26:05.341,C,0.0,90.8,38.4,67.8,47.0,0.8464,0.0097,0.6158,0.0,-6.3054,0.0
2026-06-13T00:26:05.503,C,0.0,90.6,39.1,67.7,46.6,0.8465,0.0113,0.6159,0.0,-6.4201,0.0
2026-06-13T00:26:05.665,C,0.0,90.3,39.9,67.6,46.3,0.847,0.0111,0.6149,0.0,-6.3821,0.0
2026-06-13T00:26:05.827,C,0.0,90.0,40.5,67.4,45.5,0.8479,0.0129,0.6135,0.0,-6.3593,0.0
2026-06-13T00:26:05.990,C,0.0,89.4,40.4,67.3,45.6,0.8482,0.0129,0.6131,0.0,-6.2861,0.0
2026-06-13T00:26:06.151,C,0.0,88.8,40.4,67.1,45.6,0.8484,0.0124,0.6132,0.0,-6.2974,0.0
2026-06-13T00:26:06.314,C,0.0,88.0,40.5,67.0,45.5,0.8485,0.0127,0.6123,0.0,-6.2014,0.0
2026-06-13T00:26:06.475,C,0.0,87.1,40.7,66.9,45.4,0.848,0.0121,0.613,0.0,-6.1112,0.0
2026-06-13T00:26:06.637,C,0.0,86.0,40.7,66.8,45.3,0.8475,0.0126,0.6131,0.0,-6.1247,0.0
2026-06-13T00:26:06.799,C,0.0,86.0,41.0,66.7,45.2,0.8473,0.0124,0.6138,0.0,-6.2116,0.0
2026-06-13T00:26:06.962,C,0.0,86.0,41.2,66.7,45.2,0.8472,0.0126,0.6146,0.0,-6.2318,0.0
2026-06-13T00:26:07.124,C,0.0,85.4,41.4,66.7,45.1,0.8477,0.0127,0.6138,0.0,-6.1973,0.0
2026-06-13T00:26:07.286,C,0.0,84.9,41.7,66.8,45.0,0.848,0.0136,0.6137,0.0,-6.1472,0.0
2026-06-13T00:26:07.447,C,0.0,84.3,41.8,67.0,45.2,0.8476,0.0128,0.6137,0.0,-6.2144,0.0
2026-06-13T00:26:07.609,C,0.0,83.8,41.7,67.0,45.4,0.8476,0.0116,0.6143,0.0,-6.2129,0.0
2026-06-13T00:26:07.771,C,0.0,83.2,41.6,67.1,45.5,0.848,0.0107,0.6145,0.0,-6.2666,0.0
2026-06-13T00:26:07.933,C,0.0,0.0,41.5,67.2,45.7,0.8476,0.011,0.6137,0.0,-6.2333,0.0
2026-06-13T00:26:08.095,C,0.0,0.0,41.6,67.3,45.8,0.8476,0.0101,0.6135,0.0,-6.1414,0.0
2026-06-13T00:26:08.257,C,0.0,0.0,41.7,67.5,46.2,0.8478,0.0098,0.6132,0.0,-6.1121,0.0
2026-06-13T00:26:08.419,C,0.0,0.0,41.7,67.5,46.7,0.8477,0.0112,0.6149,0.0,-6.0774,0.0
2026-06-13T00:26:08.581,C,0.0,0.0,41.9,67.6,47.0,0.8471,0.0111,0.614,0.0,-6.0737,0.0
2026-06-13T00:26:08.744,C,0.0,0.0,41.9,67.7,47.3,0.847,0.0106,0.615,0.0,-6.1207,0.0
2026-06-13T00:26:08.905,C,0.0,0.0,43.4,67.8,47.6,0.847,0.0103,0.6151,0.0,-6.2614,0.0
2026-06-13T00:26:09.067,C,0.0,0.0,44.6,67.9,48.0,0.8471,0.0086,0.6143,0.0,-6.2637,0.0
2026-06-13T00:26:09.229,C,0.0,0.0,44.4,68.1,48.4,0.8479,0.0088,0.6143,0.0,-6.2489,0.0
2026-06-13T00:26:09.391,C,0.0,0.0,43.8,68.3,48.6,0.8481,0.0083,0.6145,0.0,-6.2883,0.0
2026-06-13T00:26:09.553,C,0.0,9.2,43.3,68.5,49.3,0.8476,0.0077,0.6133,0.0,-6.1849,0.0
2026-06-13T00:26:09.716,C,0.0,19.7,42.9,68.6,50.4,0.8476,0.0069,0.6132,0.0,-6.052,0.0
2026-06-13T00:26:09.877,C,0.0,32.3,42.8,68.8,51.4,0.8478,0.0055,0.6127,0.0,-6.0959,0.0
2026-06-13T00:28:40.358,D,0.0,0.0,0.0,0.0,9.3,1.0191,0.0765,0.1597,0.0,0.0,0.0
2026-06-13T00:28:40.359,D,0.0,0.0,0.0,0.0,9.3,1.0194,0.0766,0.1622,0.0,0.0,0.0
2026-06-13T00:28:40.359,D,0.0,0.0,0.0,0.0,9.3,1.0179,0.0758,0.1614,0.0,0.0,0.0
2026-06-13T00:28:40.360,D,0.0,0.0,0.0,0.0,9.3,1.0185,0.0754,0.159,0.0,0.0,0.0
2026-06-13T00:28:40.360,D,0.0,0.0,0.0,0.0,9.4,1.0176,0.0746,0.1585,0.0,0.0,0.0
2026-06-13T00:28:40.360,D,0.0,0.0,0.0,0.0,9.4,1.0173,0.0737,0.1604,0.0,0.0,0.0
2026-06-13T00:28:40.361,D,0.0,0.0,0.0,0.0,9.5,1.0177,0.0725,0.1616,0.0,0.0,0.0
2026-06-13T00:28:40.365,D,0.0,0.0,0.0,0.0,9.5,1.0174,0.0724,0.1624,0.0,0.0,0.0
2026-06-13T00:28:40.425,D,0.0,0.0,0.0,0.0,9.6,1.0173,0.0729,0.1633,0.0,0.0,0.0
2026-06-13T00:28:40.483,D,0.0,0.0,0.0,0.0,9.7,1.0169,0.0732,0.1642,0.0,0.0,0.0
2026-06-13T00:28:40.542,D,0.0,0.0,0.0,0.0,9.7,1.0174,0.0726,0.1649,0.0,0.0,0.0
2026-06-13T00:28:40.601,D,0.0,0.0,0.0,0.0,9.5,1.0168,0.0732,0.1654,0.0,0.0,0.0
2026-06-13T00:28:40.660,D,0.0,0.0,0.0,0.0,9.3,1.0166,0.0739,0.1663,0.0,0.0,0.0
2026-06-13T00:28:40.719,D,0.0,0.0,0.0,0.0,9.2,1.0165,0.075,0.167,0.0,0.0,0.0
2026-06-13T00:28:40.778,D,0.0,0.0,0.0,0.0,8.9,1.0172,0.0748,0.1668,0.0,0.0,0.0
2026-06-13T00:28:40.837,D,0.0,0.0,0.0,0.0,8.7,1.0175,0.0738,0.1653,0.0,0.0,0.0
2026-06-13T00:28:40.896,D,0.0,0.0,0.0,0.0,8.6,1.0175,0.0727,0.1641,0.0,0.0,0.0
2026-06-13T00:28:40.955,D,0.0,0.0,0.0,0.0,8.4,1.0175,0.0736,0.164,0.0,0.0,0.0
2026-06-13T00:28:41.014,D,0.0,0.0,0.0,0.0,8.3,1.017,0.073,0.1643,0.0,0.0,0.0
2026-06-13T00:28:41.073,D,0.0,0.0,0.0,0.0,8.0,1.0176,0.0723,0.1643,0.0,0.0,0.0
2026-06-13T00:28:41.132,D,0.0,0.0,0.0,0.0,7.9,1.0185,0.0726,0.1635,0.0,0.0,0.0
2026-06-13T00:28:41.191,D,0.0,0.0,0.0,0.0,7.7,1.0181,0.0734,0.1642,0.0,0.0,0.0
2026-06-13T00:28:41.250,D,0.0,0.0,0.0,0.0,7.6,1.0184,0.0736,0.1637,0.0,0.0,0.0
2026-06-13T00:28:41.309,D,0.0,0.0,0.0,0.0,7.3,1.0184,0.0739,0.1624,0.0,0.0,0.0
2026-06-13T00:28:41.368,D,0.0,0.0,0.0,0.0,7.2,1.0184,0.0733,0.1612,0.0,0.0,0.0
2026-06-13T00:28:41.427,D,0.0,0.0,0.0,0.0,7.0,1.0207,0.0729,0.1598,0.0,0.0,0.0
2026-06-13T00:28:41.487,D,0.0,0.0,0.0,0.0,6.8,1.0207,0.0722,0.1603,0.0,0.0,0.0
2026-06-13T00:28:41.545,D,0.0,0.0,0.0,0.0,6.7,1.0192,0.072,0.1572,0.0,0.0,0.0
2026-06-13T00:28:41.604,D,0.0,0.0,0.0,0.0,6.5,1.0178,0.0669,0.1527,0.0,0.0,0.0
2026-06-13T00:28:41.663,D,0.0,0.0,0.0,0.0,6.4,1.0185,0.0618,0.1518,0.0,0.0,0.0
2026-06-13T00:28:41.722,D,0.0,0.0,0.0,0.0,6.2,1.0191,0.0596,0.1525,0.0,0.0,0.0
2026-06-13T00:28:41.781,D,0.0,0.0,0.0,0.0,6.0,1.02,0.0589,0.1531,0.0,0.0,0.0
2026-06-13T00:28:41.840,D,0.0,0.0,0.0,0.0,5.9,1.0208,0.0563,0.1535,0.0,0.0,0.0
2026-06-13T00:28:41.899,D,0.0,0.0,0.0,0.0,5.7,1.0207,0.0545,0.1537,0.0,0.0,0.0
2026-06-13T00:28:41.958,D,0.0,0.0,0.0,0.0,5.6,1.0204,0.0526,0.152,0.0,0.0,0.0
2026-06-13T00:28:42.017,D,0.0,0.0,0.0,0.0,5.6,1.02,0.0506,0.1499,0.0,0.0,0.0
2026-06-13T00:28:42.076,D,0.0,0.0,0.0,0.0,5.8,1.0205,0.0482,0.1482,0.0,0.0,0.0
2026-06-13T00:28:42.135,D,0.0,0.0,0.0,0.0,6.1,1.0224,0.0445,0.147,0.0,0.0,0.0
2026-06-13T00:28:42.194,D,0.0,0.0,0.0,0.0,6.3,1.0231,0.0425,0.1469,0.0,0.0,0.0
2026-06-13T00:28:42.253,D,0.0,0.0,0.0,0.0,6.5,1.0232,0.041,0.147,0.0,0.0,0.0
2026-06-13T00:28:42.312,D,0.0,0.0,0.0,0.0,6.8,1.0225,0.0391,0.1465,0.0,0.0,0.0
2026-06-13T00:28:42.371,D,0.0,0.0,0.0,0.0,7.0,1.0227,0.0355,0.1451,0.0,0.0,0.0
2026-06-13T00:28:42.430,D,0.0,0.0,0.0,0.0,7.2,1.0233,0.0338,0.143,0.0,0.0,0.0
2026-06-13T00:28:42.489,D,0.0,0.0,0.0,0.0,7.5,1.0235,0.0344,0.1433,0.0,0.0,0.0
2026-06-13T00:28:42.548,D,0.0,0.0,0.0,0.0,7.9,1.0236,0.0339,0.144,0.0,0.0,0.0
2026-06-13T00:28:42.607,D,0.0,0.0,0.0,0.0,8.2,1.0232,0.0322,0.1452,0.0,0.0,0.0
2026-06-13T00:28:42.666,D,0.0,0.0,0.0,0.0,8.3,1.0233,0.0309,0.1457,0.0,0.0,0.0
2026-06-13T00:28:42.725,D,0.0,0.0,0.0,0.0,8.4,1.0225,0.0301,0.1468,0.0,0.0,0.0
2026-06-13T00:28:42.784,D,0.0,0.0,0.0,0.0,8.6,1.0214,0.0284,0.1463,0.0,0.0,0.0
2026-06-13T00:28:42.843,D,0.0,0.0,0.0,0.0,8.7,1.0214,0.0272,0.1462,0.0,0.0,0.0
2026-06-13T00:28:42.902,D,0.0,0.0,0.0,0.0,8.9,1.0207,0.0259,0.1469,0.0,0.0,0.0
2026-06-13T00:28:42.961,D,0.0,0.0,0.0,0.0,9.1,1.0211,0.0264,0.1469,0.0,0.0,0.0
2026-06-13T00:28:43.021,D,0.0,0.0,0.0,0.0,9.3,1.0213,0.0261,0.1474,0.0,0.0,0.0
2026-06-13T00:28:43.079,D,0.0,0.0,0.0,0.0,9.5,1.0212,0.0267,0.1469,0.0,0.0,0.0
2026-06-13T00:28:43.138,D,0.0,0.0,0.0,0.0,9.7,1.0211,0.0243,0.1462,0.0,0.0,0.0
2026-06-13T00:28:43.197,D,0.0,0.0,0.0,0.0,9.9,1.0217,0.0229,0.1452,0.0,0.0,0.0
2026-06-13T00:28:43.257,D,0.0,0.0,0.0,0.0,10.2,1.022,0.023,0.145,0.0,0.0,0.0
2026-06-13T00:28:43.315,D,0.0,0.0,0.0,0.0,10.5,1.0226,0.0237,0.1446,0.0,0.0,0.0
2026-06-13T00:28:43.374,D,0.0,0.0,0.0,0.0,10.7,1.0233,0.0228,0.1444,0.0,0.0,0.0
2026-06-13T00:28:43.433,D,0.0,0.0,0.0,0.0,10.9,1.0234,0.0223,0.1439,0.0,0.0,0.0
2026-06-13T00:28:43.493,D,0.0,0.0,0.0,0.0,11.1,1.0232,0.0222,0.1433,0.0,0.0,0.0
2026-06-13T00:28:43.551,D,0.0,0.0,0.0,0.0,11.2,1.0229,0.0221,0.1431,0.0,0.0,0.0
2026-06-13T00:28:43.610,D,0.0,0.0,0.0,0.0,11.2,1.0229,0.0227,0.1423,0.0,0.0,0.0
2026-06-13T00:28:43.669,D,0.0,0.0,0.0,0.0,11.2,1.0229,0.0234,0.14,0.0,0.0,0.0
2026-06-13T00:28:43.728,D,0.0,0.0,0.0,0.0,10.7,1.0235,0.0219,0.1389,0.0,0.0,0.0
2026-06-13T00:28:43.787,D,0.0,0.0,0.0,0.0,10.3,1.0224,0.0169,0.1393,0.0,0.0,0.0
2026-06-13T00:28:43.846,D,0.0,0.0,0.0,0.0,9.8,1.0239,0.0139,0.1383,0.0,0.0,0.0
2026-06-13T00:28:43.905,D,0.0,0.0,0.0,0.0,9.5,1.024,0.01,0.1357,0.0,0.0,0.0
2026-06-13T00:28:43.964,D,0.0,0.0,0.0,0.0,9.0,1.0245,0.0081,0.1323,0.0,0.0,0.0
2026-06-13T00:28:44.023,D,0.0,0.0,0.0,0.0,8.4,1.0239,0.0054,0.1307,0.0,0.0,0.0
2026-06-13T00:28:44.082,D,0.0,0.0,0.0,0.0,8.0,1.0257,0.0019,0.1281,0.0,0.0,0.0
2026-06-13T00:28:44.141,D,0.0,0.0,0.0,0.0,7.6,1.0249,-0.0021,0.124,0.0,0.0,0.0
2026-06-13T00:28:44.200,D,0.0,0.0,0.0,0.0,7.2,1.0245,-0.0049,0.1204,0.0,0.0,0.0
2026-06-13T00:28:44.259,D,0.0,0.0,0.0,0.0,6.8,1.0251,-0.009,0.1184,0.0,0.0,0.0
2026-06-13T00:28:44.318,D,0.0,0.0,0.0,0.0,6.6,1.0256,-0.0105,0.1172,0.0,0.0,0.0
2026-06-13T00:28:44.377,D,0.0,0.0,0.0,0.0,6.3,1.0255,-0.0099,0.1154,0.0,0.0,0.0
2026-06-13T00:28:44.436,D,0.0,0.0,0.0,0.0,5.9,1.0261,-0.0118,0.1143,0.0,0.0,0.0
2026-06-13T00:28:44.495,D,0.0,0.0,0.0,0.0,5.4,1.0259,-0.0127,0.1132,0.0,0.0,0.0
2026-06-13T00:28:44.554,D,0.0,0.0,0.0,0.0,5.0,1.0267,-0.0122,0.1113,0.0,0.0,0.0
2026-06-13T00:28:44.613,D,0.0,0.0,0.0,0.0,4.6,1.0266,-0.0108,0.1117,0.0,0.0,0.0
2026-06-13T00:28:44.672,D,0.0,0.0,0.0,0.0,4.1,1.027,-0.0115,0.1121,0.0,0.0,0.0
2026-06-13T00:28:44.731,D,0.0,0.0,0.0,0.0,3.8,1.0267,-0.0113,0.1122,0.0,0.0,0.0
2026-06-13T00:28:44.790,D,0.0,0.0,0.0,0.0,3.5,1.0262,-0.0121,0.1104,0.0,0.0,0.0
2026-06-13T00:28:44.849,D,0.0,0.0,0.0,0.0,3.3,1.0265,-0.0126,0.11,0.0,0.0,0.0
2026-06-13T00:28:44.909,D,0.0,0.0,0.0,0.0,3.1,1.0265,-0.0119,0.11,0.0,0.0,0.0
2026-06-13T00:28:44.967,D,0.0,0.0,0.0,0.0,2.9,1.0266,-0.0125,0.1101,0.0,0.0,0.0
2026-06-13T00:28:45.026,D,0.0,0.0,0.0,0.0,2.7,1.0262,-0.0141,0.1106,0.0,0.0,0.0
2026-06-13T00:28:45.085,D,0.0,0.0,0.0,0.0,2.6,1.0264,-0.0145,0.1093,0.0,0.0,0.0
2026-06-13T00:28:45.144,D,0.0,0.0,0.0,0.0,2.4,1.0266,-0.0147,0.1081,0.0,0.0,0.0
2026-06-13T00:28:45.203,D,0.0,0.0,0.0,0.0,2.7,1.027,-0.0138,0.1082,0.0,0.0,0.0
2026-06-13T00:28:45.262,D,0.0,0.0,0.0,0.0,3.1,1.0272,-0.0138,0.1083,0.0,0.0,0.0
2026-06-13T00:28:45.321,D,0.0,0.0,0.0,0.0,3.4,1.0274,-0.0143,0.1072,0.0,0.0,0.0
2026-06-13T00:28:45.380,D,0.0,0.0,0.0,0.0,3.6,1.0273,-0.0135,0.107,0.0,0.0,0.0
2026-06-13T00:28:45.439,D,0.0,0.0,0.0,0.0,4.0,1.0272,-0.0133,0.1067,0.0,0.0,0.0
2026-06-13T00:28:45.498,D,0.0,0.0,0.0,0.0,4.5,1.0276,-0.0133,0.1071,0.0,0.0,0.0
2026-06-13T00:28:45.557,D,0.0,0.0,0.0,0.0,5.1,1.0273,-0.0129,0.1079,0.0,0.0,0.0
2026-06-13T00:28:45.616,D,0.0,0.0,0.0,0.0,5.6,1.0269,-0.0139,0.1081,0.0,0.0,0.0
2026-06-13T00:28:45.675,D,0.0,0.0,0.0,0.0,6.2,1.0269,-0.0144,0.108,0.0,0.0,0.0
2026-06-13T00:28:45.734,D,0.0,0.0,0.0,0.0,6.8,1.027,-0.0134,0.1073,0.0,0.0,0.0
2026-06-13T00:28:45.793,D,0.0,0.0,0.0,0.0,7.2,1.0267,-0.0133,0.1082,0.0,0.0,0.0
2026-06-13T00:28:45.852,D,0.0,0.0,0.0,0.0,7.7,1.0268,-0.0138,0.1092,0.0,0.0,0.0
2026-06-13T00:28:45.911,D,0.0,0.0,0.0,0.0,8.3,1.027,-0.0146,0.1094,0.0,0.0,0.0
2026-06-13T00:28:45.970,D,0.0,0.0,0.0,0.0,8.9,1.0269,-0.0141,0.1088,0.0,0.0,0.0
2026-06-13T00:28:46.029,D,0.0,0.0,0.0,0.0,9.4,1.0269,-0.0156,0.1089,0.0,0.0,0.0
2026-06-13T00:28:46.088,D,0.0,0.0,0.0,0.0,9.9,1.0268,-0.0159,0.1083,0.0,0.0,0.0
2026-06-13T00:28:46.147,D,0.0,0.0,0.0,0.0,10.5,1.0264,-0.0161,0.1099,0.0,0.0,0.0
2026-06-13T00:28:46.206,D,0.0,0.0,0.0,0.0,10.8,1.0274,-0.0173,0.1101,0.0,0.0,0.0
2026-06-13T00:28:46.265,D,0.0,0.0,0.0,0.0,10.6,1.028,-0.0178,0.1087,0.0,0.0,0.0
2026-06-13T00:28:46.324,D,0.0,0.0,0.0,0.0,10.3,1.0264,-0.0199,0.1089,0.0,0.0,0.0
2026-06-13T00:28:46.383,D,0.0,0.0,0.0,0.0,10.0,1.0268,-0.0223,0.1086,0.0,0.0,0.0
2026-06-13T00:28:46.442,D,0.0,0.0,0.0,0.0,9.7,1.0262,-0.0245,0.1069,0.0,0.0,0.0
2026-06-13T00:28:46.501,D,0.0,0.0,0.0,0.0,9.4,1.027,-0.0249,0.1067,0.0,0.0,0.0
2026-06-13T00:28:46.560,D,0.0,0.0,0.0,0.0,9.1,1.0265,-0.0256,0.1088,0.0,0.0,0.0
2026-06-13T00:28:46.619,D,0.0,0.0,0.0,0.0,8.8,1.026,-0.0265,0.1088,0.0,0.0,0.0
2026-06-13T00:28:46.678,D,0.0,0.0,0.0,0.0,8.5,1.0262,-0.0281,0.1089,0.0,0.0,0.0
2026-06-13T00:28:46.738,D,0.0,0.0,0.0,0.0,8.1,1.0251,-0.0309,0.1089,0.0,0.0,0.0
2026-06-13T00:28:46.796,D,0.0,0.0,0.0,0.0,7.8,1.025,-0.032,0.1075,0.0,0.0,0.0
2026-06-13T00:28:46.855,D,0.0,0.0,0.0,0.0,7.5,1.025,-0.0326,0.1071,0.0,0.0,0.0
2026-06-13T00:28:46.914,D,0.0,0.0,0.0,0.0,7.1,1.0249,-0.0338,0.1062,0.0,0.0,0.0
2026-06-13T00:28:46.973,D,0.0,0.0,0.0,0.0,6.6,1.0254,-0.034,0.1061,0.0,0.0,0.0
2026-06-13T00:28:47.032,D,0.0,0.0,0.0,0.0,6.0,1.0262,-0.0338,0.105,0.0,0.0,0.0
2026-06-13T00:28:47.091,D,0.0,0.0,0.0,0.0,5.4,1.027,-0.0341,0.1026,0.0,0.0,0.0
2026-06-13T00:28:47.150,D,0.0,0.0,0.0,0.0,4.9,1.0264,-0.034,0.1019,0.0,0.0,0.0
2026-06-13T00:28:47.209,D,0.0,0.0,0.0,0.0,4.3,1.0263,-0.0356,0.1017,0.0,0.0,0.0
2026-06-13T00:28:47.268,D,0.0,0.0,0.0,0.0,3.7,1.027,-0.0359,0.1008,0.0,0.0,0.0
2026-06-13T00:28:47.327,D,0.0,0.0,0.0,0.0,3.1,1.0271,-0.0352,0.1,0.0,0.0,0.0
2026-06-13T00:28:47.386,D,0.0,0.0,0.0,0.0,2.5,1.027,-0.0366,0.1003,0.0,0.0,0.0
2026-06-13T00:28:47.445,D,0.0,0.0,0.0,0.0,1.9,1.0273,-0.0366,0.1014,0.0,0.0,0.0
2026-06-13T00:28:47.504,D,0.0,0.0,0.0,0.0,1.4,1.0268,-0.0378,0.1011,0.0,0.0,0.0
2026-06-13T00:28:47.563,D,0.0,0.0,0.0,0.0,0.0,1.0264,-0.0377,0.1008,0.0,0.0,0.0
2026-06-13T00:28:47.622,D,0.0,0.0,0.0,0.0,0.0,1.026,-0.0374,0.1004,0.0,0.0,0.0
2026-06-13T00:28:47.681,D,0.0,0.0,0.0,0.0,0.0,1.0265,-0.0378,0.1011,0.0,0.0,0.0
2026-06-13T00:28:47.741,D,0.0,0.0,0.0,0.0,0.0,1.0266,-0.0385,0.1,0.0,0.0,0.0
2026-06-13T00:28:47.799,D,0.0,0.0,0.0,0.0,0.0,1.0268,-0.0372,0.0992,0.0,0.0,0.0
2026-06-13T00:28:47.858,D,0.0,0.0,0.0,0.0,0.0,1.0266,-0.0368,0.0993,0.0,0.0,0.0
2026-06-13T00:28:47.917,D,0.0,0.0,0.0,0.0,0.0,1.0274,-0.0369,0.1007,0.0,0.0,0.0
2026-06-13T00:28:47.976,D,0.0,0.0,0.0,0.0,0.0,1.0275,-0.0363,0.1011,0.0,0.0,0.0
2026-06-13T00:28:48.035,D,0.0,0.0,0.0,0.0,0.0,1.027,-0.0355,0.0993,0.0,0.0,0.0
2026-06-13T00:28:48.094,D,0.0,0.0,0.0,0.0,0.0,1.0271,-0.035,0.0985,0.0,0.0,0.0
2026-06-13T00:28:48.153,D,0.0,0.0,0.0,0.0,0.0,1.0272,-0.0346,0.0982,0.0,0.0,0.0
2026-06-13T00:28:48.212,D,0.0,0.0,0.0,0.0,0.0,1.0279,-0.0344,0.0982,0.0,0.0,0.0
2026-06-13T00:28:48.271,D,0.0,0.0,0.0,0.0,0.0,1.0273,-0.0339,0.0988,0.0,0.0,0.0
2026-06-13T00:28:48.330,D,0.0,0.0,0.0,0.0,0.0,1.0269,-0.0354,0.0985,0.0,0.0,0.0
2026-06-13T00:28:48.389,D,0.0,0.0,0.0,0.0,1.3,1.0265,-0.0363,0.0984,0.0,0.0,0.0
2026-06-13T00:28:48.448,D,0.0,0.0,0.0,0.0,1.8,1.0265,-0.0374,0.0976,0.0,0.0,0.0
2026-06-13T00:28:48.507,D,0.0,0.0,0.0,0.0,2.4,1.0265,-0.0372,0.0972,0.0,0.0,0.0
2026-06-13T00:28:48.566,D,0.0,0.0,0.0,0.0,2.8,1.0265,-0.0373,0.0977,0.0,0.0,0.0
2026-06-13T00:28:48.625,D,0.0,0.0,0.0,0.0,3.1,1.0267,-0.0365,0.0978,0.0,0.0,0.0
2026-06-13T00:28:48.684,D,0.0,0.0,0.0,0.0,3.2,1.0271,-0.0359,0.098,0.0,0.0,0.0
2026-06-13T00:28:48.743,D,0.0,0.0,0.0,0.0,3.2,1.0272,-0.035,0.0985,0.0,0.0,0.0
2026-06-13T00:28:48.802,D,0.0,0.0,0.0,0.0,3.2,1.0269,-0.0361,0.0978,0.0,0.0,0.0
2026-06-13T00:28:48.861,D,0.0,0.0,0.0,0.0,3.2,1.0266,-0.0355,0.0972,0.0,0.0,0.0
2026-06-13T00:28:48.920,D,0.0,0.0,0.0,0.0,3.2,1.0267,-0.0343,0.0977,0.0,0.0,0.0
2026-06-13T00:28:48.979,D,0.0,0.0,0.0,0.0,3.2,1.0268,-0.0343,0.0988,0.0,0.0,0.0
2026-06-13T00:28:49.038,D,0.0,0.0,0.0,0.0,3.2,1.0276,-0.0336,0.0989,0.0,0.0,0.0
2026-06-13T00:28:49.097,D,0.0,0.0,0.0,0.0,3.2,1.0278,-0.0343,0.0984,0.0,0.0,0.0
2026-06-13T00:28:49.157,D,0.0,0.0,0.0,0.0,3.2,1.0272,-0.0366,0.0993,0.0,0.0,0.0
2026-06-13T00:28:49.215,D,0.0,0.0,0.0,0.0,3.2,1.0272,-0.0387,0.0994,0.0,0.0,0.0
2026-06-13T00:28:49.275,D,0.0,0.0,0.0,0.0,3.2,1.026,-0.0379,0.0979,0.0,0.0,0.0
2026-06-13T00:28:49.333,D,0.0,0.0,0.0,0.0,3.2,1.0262,-0.0391,0.0981,0.0,0.0,0.0
2026-06-13T00:28:49.392,D,0.0,0.0,0.0,0.0,3.2,1.0258,-0.0399,0.0988,0.0,0.0,0.0
2026-06-13T00:28:49.451,D,0.0,0.0,0.0,0.0,3.2,1.0265,-0.0395,0.0981,0.0,0.0,0.0
2026-06-13T00:28:49.510,D,0.0,0.0,0.0,0.0,3.0,1.027,-0.0395,0.0969,0.0,0.0,0.0
2026-06-13T00:28:49.570,D,0.0,0.0,0.0,0.0,3.0,1.0259,-0.0408,0.096,0.0,0.0,0.0
2026-06-13T00:28:49.628,D,0.0,0.0,0.0,0.0,3.0,1.0259,-0.0425,0.0953,0.0,0.0,0.0
2026-06-13T00:28:49.687,D,0.0,0.0,0.0,0.0,3.0,1.0263,-0.0426,0.0961,0.0,0.0,0.0
2026-06-13T00:28:49.746,D,0.0,0.0,0.0,0.0,2.6,1.0267,-0.042,0.0973,0.0,0.0,0.0
2026-06-13T00:28:49.805,D,0.0,0.0,0.0,0.0,2.2,1.0263,-0.043,0.0977,0.0,0.0,0.0
2026-06-13T00:28:49.864,D,0.0,0.0,0.0,0.0,1.7,1.0259,-0.0438,0.0989,0.0,0.0,0.0
2026-06-13T00:28:49.923,D,0.0,0.0,0.0,0.0,1.2,1.0258,-0.0448,0.1004,0.0,0.0,0.0
2026-06-13T00:28:49.982,D,0.0,0.0,0.0,0.0,0.0,1.0256,-0.0447,0.101,0.0,0.0,0.0
2026-06-13T00:28:50.041,D,0.0,0.0,0.0,0.0,0.0,1.0256,-0.0457,0.1009,0.0,0.0,0.0
2026-06-13T00:28:50.100,D,0.0,0.0,0.0,0.0,0.0,1.0259,-0.0462,0.1017,0.0,0.0,0.0
2026-06-13T00:28:50.159,D,0.0,0.0,0.0,0.0,0.0,1.0253,-0.0471,0.1025,0.0,0.0,0.0
2026-06-13T00:28:50.218,D,0.0,0.0,0.0,0.0,0.0,1.0249,-0.0487,0.103,0.0,0.0,0.0
2026-06-13T00:28:50.277,D,0.0,0.0,0.0,0.0,0.0,1.0249,-0.0498,0.102,0.0,0.0,0.0
2026-06-13T00:28:50.336,D,0.0,0.0,0.0,0.0,0.0,1.0236,-0.0507,0.1028,0.0,0.0,0.0
2026-06-13T00:28:50.395,D,0.0,0.0,0.0,0.0,0.0,1.0243,-0.0515,0.1021,0.0,0.0,0.0
2026-06-13T00:29:08.297,E,0.0,90.9,81.4,98.2,81.9,0.972,-0.3193,0.0124,0.0,0.0,0.0
2026-06-13T00:29:08.459,E,0.0,90.4,80.7,98.0,82.2,0.9713,-0.3219,0.0016,0.0,0.0,0.0
2026-06-13T00:29:08.621,E,0.0,89.7,81.1,97.7,82.5,0.9699,-0.3238,-0.006,0.0,0.0,0.0
2026-06-13T00:29:08.783,E,0.0,88.9,82.7,97.5,82.9,0.9698,-0.3271,-0.0114,0.0,0.0,0.0
2026-06-13T00:29:08.945,E,0.0,88.1,82.5,97.3,84.1,0.9718,-0.3252,-0.0193,0.0,0.0,0.0
2026-06-13T00:29:09.107,E,0.0,87.2,82.2,97.1,85.0,0.972,-0.3242,-0.0246,0.0,0.0,0.0
2026-06-13T00:29:09.269,E,0.0,86.2,81.8,96.9,86.3,0.9722,-0.3229,-0.0312,0.0,0.0,0.0
2026-06-13T00:29:09.431,E,0.0,85.2,80.2,96.7,87.5,0.9731,-0.3221,-0.0355,0.0,0.0,0.0
2026-06-13T00:29:09.593,E,0.0,84.0,78.8,96.5,88.8,0.9725,-0.3228,-0.0407,0.0,0.0,0.0
2026-06-13T00:29:09.755,E,0.0,84.0,77.5,96.2,90.1,0.9723,-0.3235,-0.0436,0.0,0.0,0.0
2026-06-13T00:29:09.917,E,0.0,84.0,76.8,96.0,90.0,0.972,-0.3236,-0.0478,0.0,0.0,0.0
2026-06-13T00:29:10.079,E,0.0,83.4,74.0,95.9,90.0,0.9716,-0.3235,-0.0516,0.0,0.0,0.0
2026-06-13T00:29:10.241,E,0.0,82.8,71.1,95.8,90.5,0.971,-0.3242,-0.0547,0.0,0.0,0.0
2026-06-13T00:29:10.403,E,0.0,82.3,68.4,95.7,90.4,0.9701,-0.3247,-0.0578,0.0,0.0,0.0
2026-06-13T00:29:10.566,E,0.0,81.7,66.0,95.6,90.6,0.9692,-0.3253,-0.06,0.0,0.0,0.0
2026-06-13T00:29:10.727,E,0.0,81.2,63.7,95.5,90.6,0.9698,-0.3261,-0.0615,0.0,0.0,0.0
2026-06-13T00:29:10.889,E,0.0,80.6,60.1,95.5,90.4,0.9669,-0.3278,-0.0646,0.0,0.0,0.0
2026-06-13T00:29:11.051,E,0.0,80.0,56.5,95.4,90.2,0.9666,-0.3302,-0.0658,0.0,0.0,0.0
2026-06-13T00:29:11.213,E,0.0,79.3,53.0,95.4,89.9,0.966,-0.3329,-0.0678,0.0,0.0,0.0
2026-06-13T00:29:11.375,E,0.0,79.6,49.3,95.5,89.5,0.966,-0.3341,-0.0692,0.0,0.0,0.0
2026-06-13T00:29:11.537,E,0.0,80.4,46.0,95.5,89.1,0.9651,-0.3353,-0.0695,0.0,0.0,0.0
2026-06-13T00:29:11.699,E,0.0,81.6,42.7,95.5,88.8,0.9652,-0.3352,-0.0704,0.0,0.0,0.0
2026-06-13T00:29:11.861,E,0.0,83.0,39.7,95.3,88.8,0.9647,-0.3372,-0.0717,0.0,0.0,0.0
2026-06-13T00:29:12.023,E,0.0,84.5,36.8,95.2,88.5,0.9643,-0.3389,-0.0717,0.0,0.0,0.0
2026-06-13T00:29:12.185,E,0.0,86.1,33.7,95.1,88.1,0.964,-0.3394,-0.0722,0.0,0.0,0.0
2026-06-13T00:29:12.347,E,0.0,87.5,31.0,94.9,87.7,0.9635,-0.3394,-0.0732,0.0,0.0,0.0
2026-06-13T00:29:12.510,E,0.0,88.6,29.3,94.8,87.5,0.9635,-0.3397,-0.0741,0.0,0.0,0.0
2026-06-13T00:29:12.671,E,0.0,89.4,27.4,94.7,87.4,0.9629,-0.3408,-0.0742,0.0,0.0,0.0
2026-06-13T00:29:12.833,E,0.0,90.0,25.5,94.6,87.3,0.9626,-0.3409,-0.0756,0.0,0.0,0.0
2026-06-13T00:29:12.996,E,0.0,90.4,25.9,94.4,87.3,0.9628,-0.3421,-0.0755,0.0,0.0,0.0
2026-06-13T00:29:13.157,E,0.0,90.6,26.3,94.3,87.4,0.9628,-0.341,-0.0766,0.0,0.0,0.0
2026-06-13T00:29:13.320,E,0.0,90.8,27.0,94.2,87.5,0.9617,-0.3411,-0.0767,0.0,0.0,0.0
2026-06-13T00:29:13.482,E,0.0,90.8,27.8,94.1,87.7,0.9625,-0.34,-0.073,0.0,0.0,0.0
2026-06-13T00:29:13.643,E,0.0,90.9,28.3,94.0,87.8,0.9622,-0.3409,-0.0744,0.0,0.0,0.0
2026-06-13T00:29:13.806,E,0.0,90.9,28.9,93.9,88.0,0.9621,-0.3393,-0.0758,0.0,0.0,0.0
2026-06-13T00:29:13.967,E,0.0,90.9,29.3,93.9,88.1,0.9624,-0.3387,-0.0781,0.0,0.0,0.0
2026-06-13T00:29:14.129,E,0.0,90.9,29.7,93.8,88.2,0.9639,-0.338,-0.077,0.0,0.0,0.0
2026-06-13T00:29:14.292,E,0.0,90.9,30.8,93.7,88.3,0.9631,-0.34,-0.0769,0.0,0.0,0.0
2026-06-13T00:29:14.454,E,0.0,90.9,32.6,93.6,88.3,0.9632,-0.3391,-0.0759,0.0,0.0,0.0
2026-06-13T00:29:14.616,E,0.0,90.9,34.5,93.6,88.5,0.9629,-0.3398,-0.076,0.0,0.0,0.0
2026-06-13T00:29:14.777,E,0.0,90.9,35.9,93.5,88.8,0.9638,-0.3404,-0.0773,0.0,0.0,0.0
2026-06-13T00:29:14.940,E,0.0,90.9,37.3,93.4,89.0,0.9618,-0.3409,-0.0792,0.0,0.0,0.0
2026-06-13T00:29:15.102,E,0.0,90.9,38.9,93.3,89.2,0.9628,-0.3421,-0.0775,0.0,0.0,0.0
2026-06-13T00:29:15.264,E,0.0,90.9,40.6,93.3,89.5,0.9601,-0.3428,-0.0782,0.0,0.0,0.0
2026-06-13T00:29:15.426,E,0.0,90.9,42.4,93.2,89.7,0.9596,-0.3448,-0.0778,0.0,0.0,0.0
2026-06-13T00:29:15.588,E,0.0,90.8,43.8,93.1,89.9,0.9605,-0.3441,-0.0752,0.0,0.0,0.0
2026-06-13T00:29:15.750,E,0.0,90.8,46.0,93.1,90.1,0.9601,-0.3465,-0.0752,0.0,0.0,0.0
2026-06-13T00:29:15.912,E,0.0,90.8,48.2,93.0,90.4,0.9591,-0.3478,-0.0748,0.0,0.0,0.0
2026-06-13T00:29:16.074,E,0.0,90.7,50.4,93.0,90.4,0.9591,-0.3465,-0.0764,0.0,0.0,0.0
2026-06-13T00:29:16.236,E,0.0,90.7,52.7,93.0,90.6,0.9601,-0.3462,-0.0752,0.0,0.0,0.0
2026-06-13T00:29:16.397,E,0.0,90.6,55.0,92.9,90.8,0.9595,-0.3454,-0.0756,0.0,0.0,0.0
2026-06-13T00:29:16.560,E,0.0,90.6,56.9,92.9,90.6,0.9588,-0.3441,-0.0762,0.0,0.0,0.0
2026-06-13T00:29:16.722,E,0.0,90.6,59.0,92.9,90.3,0.9613,-0.3434,-0.0723,0.0,0.0,0.0
2026-06-13T00:29:16.884,E,0.0,90.6,61.2,92.9,90.0,0.9609,-0.3444,-0.0733,0.0,0.0,0.0
2026-06-13T00:29:17.046,E,0.0,90.6,63.4,92.9,89.7,0.9618,-0.3436,-0.0728,0.0,0.0,0.0
2026-06-13T00:29:17.208,E,0.0,90.7,65.2,93.0,89.4,0.9601,-0.343,-0.0706,0.0,0.0,0.0
2026-06-13T00:29:17.370,E,0.0,90.8,66.5,93.0,89.1,0.961,-0.3423,-0.0695,0.0,0.0,0.0
2026-06-13T00:29:17.532,E,0.0,90.9,68.0,93.1,88.8,0.9611,-0.3439,-0.0681,0.0,0.0,0.0
2026-06-13T00:29:17.694,E,2.3,90.9,69.8,93.1,88.5,0.9614,-0.3455,-0.0668,0.0,0.0,0.0
2026-06-13T00:29:17.856,E,2.3,91.0,71.7,93.1,88.2,0.9607,-0.3448,-0.0666,0.0,0.0,0.0
2026-06-13T00:29:18.018,E,0.0,91.0,73.9,93.2,87.9,0.9626,-0.3452,-0.0642,0.0,0.0,0.0
2026-06-13T00:29:18.180,E,0.0,91.1,76.2,93.2,87.7,0.962,-0.3462,-0.0646,0.0,0.0,0.0
2026-06-13T00:29:18.342,E,0.0,91.2,77.1,93.2,87.5,0.9637,-0.3461,-0.0664,0.0,0.0,0.0
2026-06-13T00:30:39.180,F,0.0,62.0,0.0,0.0,0.0,0.9973,0.1541,0.2398,0.0,0.0,0.0
2026-06-13T00:30:39.180,F,0.0,62.0,0.0,0.0,0.0,0.9976,0.1532,0.2392,0.0,0.0,0.0
2026-06-13T00:30:39.181,F,0.0,62.0,0.0,0.0,0.0,0.997,0.1509,0.2393,0.0,0.0,0.0
2026-06-13T00:30:39.181,F,0.0,62.0,0.0,0.0,0.0,0.9991,0.1464,0.2367,0.0,0.0,0.0
2026-06-13T00:30:39.182,F,0.0,61.9,0.0,0.0,0.0,0.997,0.1405,0.239,0.0,0.0,0.0
2026-06-13T00:30:39.182,F,0.0,61.9,0.0,0.0,0.0,0.9972,0.1388,0.2357,0.0,0.0,0.0
2026-06-13T00:30:39.182,F,0.0,61.8,0.0,0.0,0.0,0.9973,0.1401,0.2342,0.0,0.0,0.0
2026-06-13T00:30:39.183,F,0.0,61.7,0.0,0.0,0.0,0.9973,0.1457,0.2338,0.0,0.0,0.0
2026-06-13T00:30:39.183,F,0.0,61.5,0.0,0.0,0.0,0.9979,0.1479,0.2343,0.0,0.0,0.0
2026-06-13T00:30:39.253,F,0.0,60.3,0.0,0.0,0.0,0.997,0.1467,0.242,0.0,0.0,0.0
2026-06-13T00:30:39.312,F,0.0,60.3,0.0,0.0,0.0,0.9969,0.1464,0.2414,0.0,0.0,0.0
2026-06-13T00:30:39.371,F,0.0,60.3,0.0,0.0,0.0,0.9967,0.1458,0.2408,0.0,0.0,0.0
2026-06-13T00:30:39.430,F,0.0,60.3,0.0,0.0,0.0,0.9967,0.1458,0.2403,0.0,0.0,0.0
2026-06-13T00:30:39.489,F,0.0,60.3,0.0,0.0,0.0,0.997,0.147,0.2403,0.0,0.0,0.0
2026-06-13T00:30:39.548,F,0.0,60.3,0.0,0.0,0.0,0.9971,0.1463,0.2404,0.0,0.0,0.0
2026-06-13T00:30:39.607,F,0.0,60.3,0.0,0.0,0.0,0.9973,0.1456,0.2404,0.0,0.0,0.0
2026-06-13T00:30:39.666,F,0.0,60.3,0.0,0.0,0.0,0.9975,0.1453,0.2404,0.0,0.0,0.0
2026-06-13T00:30:39.725,F,0.0,60.3,0.0,0.0,0.0,0.9972,0.1453,0.2399,0.0,0.0,0.0
2026-06-13T00:30:39.784,F,0.0,60.3,0.0,0.0,0.0,0.9972,0.1447,0.2387,0.0,0.0,0.0
2026-06-13T00:30:39.843,F,0.0,60.3,0.0,0.0,0.0,0.9972,0.1449,0.2387,0.0,0.0,0.0
2026-06-13T00:30:39.902,F,0.0,60.3,0.0,0.0,0.0,0.9971,0.1448,0.2395,0.0,0.0,0.0
2026-06-13T00:30:39.961,F,0.0,60.3,0.0,0.0,0.0,0.9969,0.1437,0.2402,0.0,0.0,0.0
2026-06-13T00:30:40.020,F,0.0,60.3,0.0,0.0,0.0,0.9971,0.1443,0.241,0.0,0.0,0.0
2026-06-13T00:30:40.079,F,0.0,60.2,0.0,0.0,0.0,0.9967,0.1437,0.2412,0.0,0.0,0.0
2026-06-13T00:30:40.138,F,0.0,60.2,0.0,0.0,0.0,0.9963,0.1429,0.2409,0.0,0.0,0.0
2026-06-13T00:30:40.197,F,0.0,60.2,0.0,0.0,0.0,0.9966,0.143,0.2406,0.0,0.0,0.0
2026-06-13T00:30:40.256,F,0.0,60.2,0.0,0.0,0.0,0.997,0.1437,0.2422,0.0,0.0,0.0
2026-06-13T00:30:40.315,F,0.0,60.2,0.0,0.0,0.0,0.9968,0.1433,0.2435,0.0,0.0,0.0
2026-06-13T00:30:40.374,F,0.0,60.2,0.0,0.0,0.0,0.9966,0.1419,0.2439,0.0,0.0,0.0
2026-06-13T00:30:40.433,F,0.0,60.2,0.0,0.0,0.0,0.997,0.1419,0.2428,0.0,0.0,0.0
2026-06-13T00:30:40.492,F,0.0,60.2,0.0,0.0,0.0,0.997,0.142,0.2425,0.0,0.0,0.0
2026-06-13T00:30:40.551,F,0.0,60.2,0.0,0.0,0.0,0.9972,0.1426,0.2422,0.0,0.0,0.0
2026-06-13T00:30:40.610,F,0.0,60.3,0.0,0.0,0.0,0.9973,0.141,0.2429,0.0,0.0,0.0
2026-06-13T00:30:40.669,F,0.0,60.3,0.0,0.0,0.0,0.9973,0.1409,0.243,0.0,0.0,0.0
2026-06-13T00:30:40.728,F,0.0,60.4,0.0,0.0,0.0,0.9971,0.1401,0.2429,0.0,0.0,0.0
2026-06-13T00:30:40.787,F,0.0,60.4,0.0,0.0,0.0,0.9967,0.1399,0.2427,0.0,0.0,0.0
2026-06-13T00:30:40.846,F,0.0,60.4,0.0,0.0,0.0,0.9964,0.1395,0.2408,0.0,0.0,0.0
2026-06-13T00:30:40.905,F,0.0,60.5,0.0,0.0,0.0,0.9965,0.1391,0.2407,0.0,0.0,0.0
2026-06-13T00:30:40.964,F,0.0,60.5,0.0,0.0,0.0,0.9961,0.1388,0.2424,0.0,0.0,0.0
2026-06-13T00:30:41.023,F,0.0,60.5,0.0,0.0,0.0,0.9965,0.1397,0.2453,0.0,0.0,0.0
2026-06-13T00:30:41.082,F,0.0,60.5,0.0,0.0,0.0,0.9966,0.1415,0.2481,0.0,0.0,0.0
2026-06-13T00:30:41.141,F,0.0,60.6,0.0,0.0,0.0,0.9966,0.1409,0.2495,0.0,0.0,0.0
2026-06-13T00:30:41.200,F,0.0,60.6,0.0,0.0,0.0,0.9966,0.14,0.2489,0.0,0.0,0.0
2026-06-13T00:30:41.259,F,0.0,60.6,0.0,0.0,0.0,0.9966,0.1396,0.2487,0.0,0.0,0.0
2026-06-13T00:30:41.318,F,0.0,60.6,0.0,0.0,0.0,0.9967,0.1406,0.248,0.0,0.0,0.0
2026-06-13T00:30:41.377,F,0.0,60.5,0.0,0.0,0.0,0.9969,0.1403,0.249,0.0,0.0,0.0
2026-06-13T00:30:41.436,F,0.0,60.5,0.0,0.0,0.0,0.9972,0.1406,0.2508,0.0,0.0,0.0
2026-06-13T00:30:41.495,F,0.0,60.5,0.0,0.0,0.0,0.9973,0.1406,0.2509,0.0,0.0,0.0
2026-06-13T00:30:41.554,F,0.0,60.5,0.0,0.0,0.0,0.9974,0.1396,0.2491,0.0,0.0,0.0
2026-06-13T00:30:41.613,F,0.0,60.5,0.0,0.0,0.0,0.9973,0.1383,0.2453,0.0,0.0,0.0
2026-06-13T00:30:41.672,F,0.0,60.5,0.0,0.0,0.0,0.9975,0.1374,0.2411,0.0,0.0,0.0
2026-06-13T00:30:41.731,F,0.0,60.5,0.0,0.0,0.0,0.9977,0.1373,0.2401,0.0,0.0,0.0
2026-06-13T00:30:41.790,F,0.0,60.5,0.0,0.0,0.0,0.9987,0.1374,0.2413,0.0,0.0,0.0
2026-06-13T00:30:41.849,F,0.0,60.4,0.0,0.0,0.0,0.9979,0.137,0.2438,0.0,0.0,0.0
2026-06-13T00:30:41.908,F,0.0,60.4,0.0,0.0,0.0,0.9982,0.1362,0.2427,0.0,0.0,0.0
2026-06-13T00:30:41.967,F,0.0,60.4,0.0,0.0,0.0,0.9989,0.1349,0.2417,0.0,0.0,0.0
2026-06-13T00:30:42.026,F,0.0,60.3,0.0,0.0,0.0,0.9983,0.1351,0.2411,0.0,0.0,0.0
2026-06-13T00:30:42.085,F,0.0,60.3,0.0,0.0,0.0,0.9988,0.1345,0.2414,0.0,0.0,0.0
2026-06-13T00:30:42.144,F,0.0,60.1,0.0,0.0,0.0,0.9983,0.1354,0.2425,0.0,0.0,0.0
2026-06-13T00:30:42.203,F,0.0,59.9,0.0,0.0,0.0,0.9975,0.1355,0.243,0.0,0.0,0.0
2026-06-13T00:30:42.262,F,0.0,59.6,0.0,0.0,0.0,0.9971,0.1349,0.2442,0.0,0.0,0.0
2026-06-13T00:30:42.321,F,0.0,59.2,0.0,0.0,0.0,0.9967,0.1337,0.2466,0.0,0.0,0.0
2026-06-13T00:30:42.380,F,0.0,58.7,0.0,0.0,0.0,0.9965,0.1347,0.2503,0.0,0.0,0.0
2026-06-13T00:30:42.439,F,0.0,58.1,0.0,0.0,0.0,0.9957,0.1359,0.2544,0.0,0.0,0.0
2026-06-13T00:30:42.498,F,0.0,57.5,0.0,0.0,0.0,0.9953,0.1361,0.2561,0.0,0.0,0.0
2026-06-13T00:30:42.557,F,0.0,56.8,0.0,0.0,0.0,0.9954,0.1357,0.2581,0.0,0.0,0.0
2026-06-13T00:30:42.616,F,0.0,56.1,0.0,0.0,0.0,0.995,0.1347,0.2569,0.0,0.0,0.0
2026-06-13T00:30:42.675,F,0.0,55.3,0.0,0.0,0.0,0.9952,0.1331,0.2552,0.0,0.0,0.0
2026-06-13T00:30:42.734,F,0.0,54.6,0.0,0.0,0.0,0.9955,0.1311,0.2533,0.0,0.0,0.0
2026-06-13T00:30:42.793,F,0.0,53.9,0.0,0.0,0.0,0.9955,0.1309,0.2531,0.0,0.0,0.0
2026-06-13T00:30:42.852,F,0.0,53.3,0.0,0.0,0.0,0.9957,0.1333,0.2535,0.0,0.0,0.0
2026-06-13T00:30:42.911,F,0.0,52.8,0.0,0.0,0.0,0.9956,0.1321,0.2554,0.0,0.0,0.0
2026-06-13T00:30:42.970,F,0.0,52.3,0.0,0.0,0.0,0.9955,0.1315,0.2561,0.0,0.0,0.0
2026-06-13T00:30:43.029,F,0.0,51.9,0.0,0.0,0.0,0.9949,0.1311,0.2564,0.0,0.0,0.0
2026-06-13T00:30:43.088,F,0.0,51.4,0.0,0.0,0.0,0.9953,0.1314,0.2565,0.0,0.0,0.0
2026-06-13T00:30:43.147,F,0.0,51.1,0.0,0.0,0.0,0.9946,0.1305,0.2575,0.0,0.0,0.0
2026-06-13T00:30:43.206,F,0.0,50.8,0.0,0.0,0.0,0.9947,0.1319,0.2588,0.0,0.0,0.0
2026-06-13T00:30:43.265,F,0.0,50.5,0.0,0.0,0.0,0.9945,0.1332,0.2592,0.0,0.0,0.0
2026-06-13T00:30:43.324,F,0.0,50.2,0.0,0.0,0.0,0.9943,0.1324,0.26,0.0,0.0,0.0
2026-06-13T00:30:43.383,F,0.0,49.9,0.0,0.0,0.0,0.9945,0.1319,0.2597,0.0,0.0,0.0
2026-06-13T00:30:43.442,F,0.0,49.8,0.0,0.0,0.0,0.9943,0.1319,0.2589,0.0,0.0,0.0
2026-06-13T00:30:43.501,F,0.0,49.7,0.0,0.0,0.0,0.9946,0.1319,0.2585,0.0,0.0,0.0
2026-06-13T00:30:43.560,F,0.0,49.9,0.0,0.0,0.0,0.9946,0.1334,0.2588,0.0,0.0,0.0
2026-06-13T00:30:43.619,F,0.0,50.3,0.0,0.0,0.0,0.9947,0.1336,0.259,0.0,0.0,0.0
2026-06-13T00:30:43.678,F,0.0,50.8,0.0,0.0,0.0,0.9945,0.134,0.2581,0.0,0.0,0.0
2026-06-13T00:30:43.737,F,0.0,51.5,0.0,0.0,0.0,0.9942,0.1334,0.2581,0.0,0.0,0.0
2026-06-13T00:30:43.796,F,0.0,52.3,0.0,0.0,0.0,0.9949,0.1346,0.259,0.0,0.0,0.0
2026-06-13T00:30:43.855,F,0.0,53.2,0.0,0.0,0.0,0.995,0.1342,0.2596,0.0,0.0,0.0
2026-06-13T00:30:43.914,F,0.0,54.1,0.0,0.0,0.0,0.9948,0.1331,0.2605,0.0,0.0,0.0
2026-06-13T00:30:43.973,F,0.0,55.1,0.0,0.0,0.0,0.9952,0.1335,0.2595,0.0,0.0,0.0
2026-06-13T00:30:44.032,F,0.0,56.1,0.0,0.0,0.0,0.9947,0.133,0.2586,0.0,0.0,0.0
2026-06-13T00:30:44.091,F,0.0,57.1,0.0,0.0,0.0,0.9954,0.1329,0.2589,0.0,0.0,0.0
2026-06-13T00:30:44.150,F,0.0,57.7,0.0,0.0,0.0,0.9964,0.1332,0.2593,0.0,0.0,0.0
2026-06-13T00:30:44.209,F,0.0,58.1,0.0,0.0,0.0,0.995,0.1308,0.2592,0.0,0.0,0.0
2026-06-13T00:30:44.268,F,0.0,58.3,0.0,0.0,0.0,0.9943,0.1291,0.2567,0.0,0.0,0.0
2026-06-13T00:30:44.327,F,0.0,58.3,0.0,0.0,0.0,0.9954,0.1322,0.2567,0.0,0.0,0.0
2026-06-13T00:30:44.386,F,0.0,58.2,0.0,0.0,0.0,0.9967,0.1325,0.2579,0.0,0.0,0.0
2026-06-13T00:30:44.445,F,0.0,58.1,0.0,0.0,0.0,0.9958,0.1303,0.2583,0.0,0.0,0.0
2026-06-13T00:30:44.504,F,0.0,57.9,0.0,0.0,0.0,0.9936,0.1267,0.2561,0.0,0.0,0.0
2026-06-13T00:30:44.563,F,0.0,57.7,0.0,0.0,0.0,0.9943,0.1283,0.2554,0.0,0.0,0.0
2026-06-13T00:30:44.622,F,0.0,57.4,0.0,0.0,0.0,0.9973,0.131,0.2587,0.0,0.0,0.0
2026-06-13T00:30:44.681,F,0.0,57.1,0.0,0.0,0.0,0.9981,0.1302,0.2613,0.0,0.0,0.0
2026-06-13T00:30:44.740,F,0.0,56.7,0.0,0.0,0.0,0.9955,0.126,0.2603,0.0,0.0,0.0
2026-06-13T00:30:44.799,F,0.0,56.2,0.0,0.0,0.0,0.9923,0.1259,0.2573,0.0,0.0,0.0
2026-06-13T00:30:44.858,F,0.0,55.8,0.0,0.0,0.0,0.9945,0.1296,0.2592,0.0,0.0,0.0
2026-06-13T00:30:44.917,F,0.0,55.3,0.0,0.0,0.0,0.9979,0.1317,0.2642,0.0,0.0,0.0
2026-06-13T00:30:44.976,F,0.0,54.8,0.0,0.0,0.0,0.9979,0.1288,0.2656,0.0,0.0,0.0
2026-06-13T00:30:45.035,F,0.0,54.4,0.0,0.0,0.0,0.9945,0.1249,0.2612,0.0,0.0,0.0
2026-06-13T00:30:45.094,F,0.0,53.9,0.0,0.0,0.0,0.9925,0.1255,0.2563,0.0,0.0,0.0
2026-06-13T00:30:45.153,F,0.0,53.5,0.0,0.0,0.0,0.9939,0.1291,0.257,0.0,0.0,0.0
2026-06-13T00:30:45.212,F,0.0,53.1,0.0,0.0,0.0,0.9975,0.1298,0.2624,0.0,0.0,0.0
2026-06-13T00:30:45.271,F,0.0,52.8,0.0,0.0,0.0,0.998,0.1263,0.2667,0.0,0.0,0.0
2026-06-13T00:30:45.330,F,0.0,52.4,0.0,0.0,0.0,0.9941,0.1221,0.2644,0.0,0.0,0.0
2026-06-13T00:30:45.389,F,0.0,52.2,0.0,0.0,0.0,0.9921,0.1243,0.2614,0.0,0.0,0.0
2026-06-13T00:30:45.448,F,0.0,52.0,0.0,0.0,0.0,0.9942,0.128,0.2646,0.0,0.0,0.0
2026-06-13T00:30:45.507,F,0.0,51.8,0.0,0.0,0.0,0.9968,0.1278,0.2685,0.0,0.0,0.0
2026-06-13T00:30:45.566,F,0.0,51.7,0.0,0.0,0.0,0.9965,0.1252,0.2694,0.0,0.0,0.0
2026-06-13T00:30:45.625,F,0.0,51.7,0.0,0.0,0.0,0.993,0.1237,0.2647,0.0,0.0,0.0
2026-06-13T00:30:45.684,F,0.0,51.7,0.0,0.0,0.0,0.992,0.1258,0.2611,0.0,0.0,0.0
2026-06-13T00:30:45.743,F,0.0,51.6,0.0,0.0,0.0,0.9949,0.1285,0.2645,0.0,0.0,0.0
2026-06-13T00:30:45.802,F,0.0,51.7,0.0,0.0,0.0,0.9974,0.1276,0.2687,0.0,0.0,0.0
2026-06-13T00:30:45.861,F,0.0,51.8,0.0,0.0,0.0,0.9957,0.1235,0.2694,0.0,0.0,0.0
2026-06-13T00:30:45.920,F,0.0,51.9,0.0,0.0,0.0,0.9929,0.1202,0.2647,0.0,0.0,0.0
2026-06-13T00:30:45.979,F,0.0,52.0,0.0,0.0,0.0,0.9922,0.1204,0.2628,0.0,0.0,0.0
2026-06-13T00:30:46.038,F,0.0,52.1,0.0,0.0,0.0,0.994,0.1208,0.2643,0.0,0.0,0.0
2026-06-13T00:30:46.097,F,0.0,52.2,0.0,0.0,0.0,0.9946,0.1193,0.2654,0.0,0.0,0.0
2026-06-13T00:30:46.156,F,0.0,52.3,0.0,0.0,0.0,0.9929,0.1184,0.263,0.0,0.0,0.0
2026-06-13T00:30:46.215,F,0.0,52.4,0.0,0.0,0.0,0.9905,0.1182,0.2594,0.0,0.0,0.0
2026-06-13T00:30:46.274,F,0.0,52.5,0.0,0.0,0.0,0.9956,0.1195,0.2603,0.0,0.0,0.0
2026-06-13T00:30:46.333,F,0.0,52.6,0.0,0.0,0.0,0.9954,0.1233,0.2668,0.0,0.0,0.0
2026-06-13T00:30:46.392,F,0.0,52.7,0.0,0.0,0.0,0.9954,0.1264,0.269,0.0,0.0,0.0
2026-06-13T00:30:46.451,F,0.0,52.7,0.0,0.0,0.0,0.9973,0.1278,0.2696,0.0,0.0,0.0
2026-06-13T00:30:46.510,F,0.0,52.8,0.0,0.0,0.0,0.9983,0.1284,0.2636,0.0,0.0,0.0
2026-06-13T00:30:46.569,F,0.0,52.8,0.0,0.0,0.0,0.9976,0.1278,0.2572,0.0,0.0,0.0
2026-06-13T00:30:46.628,F,0.0,52.9,0.0,0.0,0.0,0.9976,0.1314,0.2547,0.0,0.0,0.0
2026-06-13T00:30:46.687,F,0.0,52.9,0.0,0.0,0.0,0.9966,0.1356,0.2571,0.0,0.0,0.0
2026-06-13T00:30:46.746,F,0.0,52.9,0.0,0.0,0.0,0.997,0.1356,0.2579,0.0,0.0,0.0
2026-06-13T00:30:46.805,F,0.0,52.9,0.0,0.0,0.0,0.997,0.1257,0.2574,0.0,0.0,0.0
2026-06-13T00:30:46.864,F,0.0,52.9,0.0,0.0,0.0,0.9971,0.1154,0.2536,0.0,0.0,0.0
2026-06-13T00:30:46.923,F,0.0,52.9,0.0,0.0,0.0,0.9964,0.1131,0.2495,0.0,0.0,0.0
2026-06-13T00:30:46.982,F,0.0,52.9,0.0,0.0,0.0,0.9977,0.1132,0.2485,0.0,0.0,0.0
2026-06-13T00:30:47.041,F,0.0,52.9,0.0,0.0,0.0,1.0022,0.1152,0.2489,0.0,0.0,0.0
2026-06-13T00:30:47.100,F,0.0,52.9,0.0,0.0,0.0,1.0014,0.1179,0.2499,0.0,0.0,0.0
2026-06-13T00:30:47.159,F,0.0,52.9,0.0,0.0,0.0,0.996,0.1195,0.2475,0.0,0.0,0.0
2026-06-13T00:30:47.218,F,0.0,52.9,0.0,0.0,0.0,0.9985,0.1182,0.2479,0.0,0.0,0.0
2026-06-13T00:30:47.277,F,0.0,52.9,0.0,0.0,0.0,0.9992,0.1133,0.2481,0.0,0.0,0.0
2026-06-13T00:30:47.336,F,0.0,52.9,0.0,0.0,0.0,0.9977,0.1074,0.2442,0.0,0.0,0.0
2026-06-13T00:30:47.395,F,0.0,52.9,0.0,0.0,0.0,0.9991,0.109,0.246,0.0,0.0,0.0
2026-06-13T00:30:47.454,F,0.0,52.9,0.0,0.0,0.0,0.9976,0.1118,0.2487,0.0,0.0,0.0
2026-06-13T00:30:47.513,F,0.0,52.9,0.0,0.0,0.0,0.9967,0.1101,0.2518,0.0,0.0,0.0
2026-06-13T00:30:47.572,F,0.0,52.8,0.0,0.0,0.0,0.9951,0.1049,0.2565,0.0,0.0,0.0
2026-06-13T00:30:47.631,F,0.0,52.8,0.0,0.0,0.0,0.9948,0.1033,0.2591,0.0,0.0,0.0
2026-06-13T00:30:47.690,F,0.0,52.8,0.0,0.0,0.0,0.9949,0.1017,0.2629,0.0,0.0,0.0
2026-06-13T00:30:47.749,F,0.0,52.8,0.0,0.0,0.0,0.9942,0.1036,0.2649,0.0,0.0,0.0
2026-06-13T00:30:47.808,F,0.0,52.8,0.0,0.0,0.0,0.9939,0.1069,0.2653,0.0,0.0,0.0
2026-06-13T00:30:47.867,F,0.0,52.8,0.0,0.0,0.0,0.9936,0.1104,0.268,0.0,0.0,0.0
2026-06-13T00:30:47.926,F,0.0,52.8,0.0,0.0,0.0,0.9941,0.1158,0.2722,0.0,0.0,0.0
2026-06-13T00:30:47.985,F,0.0,52.9,0.0,0.0,0.0,0.9931,0.1176,0.2753,0.0,0.0,0.0
2026-06-13T00:30:48.044,F,0.0,52.9,0.0,0.0,1.2,0.9929,0.1178,0.2749,0.0,0.0,0.0
2026-06-13T00:30:48.103,F,0.0,52.9,0.0,0.0,1.2,0.9924,0.12,0.2721,0.0,0.0,0.0
2026-06-13T00:30:48.162,F,0.0,52.9,0.0,0.0,1.3,0.9936,0.1244,0.2712,0.0,0.0,0.0
2026-06-13T00:30:48.221,F,0.0,53.0,0.0,0.0,1.3,0.9931,0.1271,0.2734,0.0,0.0,0.0
2026-06-13T00:30:48.280,F,0.0,53.0,0.0,0.0,1.4,0.9926,0.1284,0.274,0.0,0.0,0.0
2026-06-13T00:30:48.339,F,0.0,53.0,0.0,0.0,1.4,0.9916,0.1303,0.2748,0.0,0.0,0.0
2026-06-13T00:30:48.398,F,0.0,53.0,0.0,0.0,1.5,0.9929,0.1337,0.2733,0.0,0.0,0.0
2026-06-13T00:30:48.457,F,0.0,53.0,0.0,0.0,1.5,0.9928,0.1324,0.2733,0.0,0.0,0.0
2026-06-13T00:30:48.516,F,0.0,53.1,0.0,0.0,1.5,0.9911,0.1296,0.2722,0.0,0.0,0.0
2026-06-13T00:30:48.575,F,0.0,53.1,0.0,0.0,1.6,0.9908,0.1275,0.2711,0.0,0.0,0.0
2026-06-13T00:30:48.634,F,0.0,53.1,0.0,0.0,1.6,0.9913,0.1256,0.2705,0.0,0.0,0.0
2026-06-13T00:30:48.693,F,0.0,53.2,0.0,0.0,1.6,0.9922,0.1238,0.2714,0.0,0.0,0.0
2026-06-13T00:30:48.752,F,0.0,53.3,0.0,0.0,1.6,0.9927,0.1228,0.2728,0.0,0.0,0.0
2026-06-13T00:30:48.811,F,0.0,53.3,0.0,0.0,1.6,0.9925,0.1237,0.2723,0.0,0.0,0.0
2026-06-13T00:30:48.870,F,0.0,53.4,0.0,0.0,1.7,0.9926,0.1235,0.2718,0.0,0.0,0.0
2026-06-13T00:30:48.929,F,0.0,53.4,0.0,0.0,1.7,0.9925,0.1232,0.2704,0.0,0.0,0.0
2026-06-13T00:30:48.988,F,0.0,53.5,0.0,0.0,1.7,0.993,0.1222,0.2672,0.0,0.0,0.0
2026-06-13T00:30:49.047,F,0.0,53.6,0.0,0.0,1.7,0.9932,0.1221,0.2651,0.0,0.0,0.0
2026-06-13T00:30:49.106,F,0.0,53.7,0.0,0.0,1.7,0.9939,0.124,0.2668,0.0,0.0,0.0
2026-06-13T00:30:49.165,F,0.0,53.8,0.0,0.0,1.7,0.9934,0.1247,0.2706,0.0,0.0,0.0
2026-06-13T00:30:49.224,F,0.0,53.8,0.0,0.0,1.7,0.9927,0.1236,0.2752,0.0,0.0,0.0
2026-06-13T00:31:26.332,G,26.9,0.0,100.0,50.0,71.7,0.2225,0.9714,-0.0357,0.0,0.0,0.0
2026-06-13T00:31:26.494,G,23.6,0.0,100.0,50.0,71.3,0.219,0.9724,-0.0328,0.0,0.0,0.0
2026-06-13T00:31:26.656,G,23.8,0.0,100.0,50.1,70.8,0.2163,0.9746,-0.0323,0.0,0.0,0.0
2026-06-13T00:31:26.818,G,23.9,0.0,100.0,50.2,70.8,0.2145,0.9762,-0.0316,0.0,0.0,0.0
2026-06-13T00:31:26.980,G,24.0,0.0,100.0,50.3,70.4,0.2127,0.9769,-0.0295,0.0,0.0,0.0
2026-06-13T00:31:27.142,G,24.0,0.0,100.0,50.4,69.9,0.2109,0.9781,-0.0282,0.0,0.0,0.0
2026-06-13T00:31:27.304,G,24.1,0.0,100.0,50.5,69.8,0.2104,0.9791,-0.0276,0.0,0.0,0.0
2026-06-13T00:31:27.466,G,24.1,0.0,100.0,50.8,70.1,0.2099,0.9783,-0.0258,0.0,0.0,0.0
2026-06-13T00:31:27.628,G,24.2,0.0,100.0,51.0,70.1,0.2092,0.9785,-0.0244,0.0,0.0,0.0
2026-06-13T00:31:27.790,G,24.1,0.0,100.0,51.2,70.4,0.2093,0.9774,-0.0235,0.0,0.0,0.0
2026-06-13T00:31:27.952,G,24.2,0.0,100.0,51.4,70.6,0.2095,0.9772,-0.0207,0.0,0.0,0.0
2026-06-13T00:31:28.114,G,24.3,0.0,100.0,51.5,70.6,0.2094,0.9781,-0.0215,0.0,0.0,0.0
2026-06-13T00:31:28.276,G,24.4,0.0,100.0,51.6,70.6,0.2089,0.9788,-0.0214,0.0,0.0,0.0
2026-06-13T00:31:28.438,G,24.4,0.0,100.0,51.8,70.7,0.2089,0.9797,-0.0217,0.0,0.0,0.0
2026-06-13T00:31:28.600,G,24.4,0.0,100.0,51.9,70.7,0.2093,0.98,-0.0227,0.0,0.0,0.0
2026-06-13T00:31:28.762,G,24.4,0.0,100.0,52.0,70.6,0.2101,0.9794,-0.0224,0.0,0.0,0.0
2026-06-13T00:31:28.924,G,24.4,0.0,100.0,52.2,70.5,0.2102,0.9787,-0.0213,0.0,0.0,0.0
2026-06-13T00:31:29.086,G,24.4,0.0,100.0,52.3,70.1,0.2097,0.9799,-0.0224,0.0,0.0,0.0
2026-06-13T00:31:29.248,G,24.4,0.0,100.0,52.3,69.9,0.2098,0.9803,-0.021,0.0,0.0,0.0
2026-06-13T00:31:29.410,G,24.5,0.0,100.0,52.3,69.8,0.2099,0.9806,-0.0213,0.0,0.0,0.0
2026-06-13T00:31:29.572,G,24.3,0.0,100.0,52.2,69.5,0.2096,0.9814,-0.0222,0.0,0.0,0.0
2026-06-13T00:31:29.735,G,24.2,0.0,100.0,52.2,69.4,0.2094,0.9816,-0.0222,0.0,0.0,0.0
2026-06-13T00:31:29.896,G,24.0,0.0,100.0,52.1,69.3,0.2115,0.9801,-0.0282,0.0,0.0,0.0
2026-06-13T00:31:30.058,G,23.9,0.0,100.0,52.1,69.3,0.2117,0.9805,-0.0363,0.0,0.0,0.0
2026-06-13T00:31:30.220,G,23.7,0.0,100.0,52.0,69.4,0.2116,0.9799,-0.0423,0.0,0.0,0.0
2026-06-13T00:31:30.382,G,23.6,0.0,100.0,52.2,69.5,0.2124,0.9791,-0.0482,0.0,0.0,0.0
2026-06-13T00:31:30.544,G,23.4,0.0,100.0,52.1,69.7,0.2128,0.9793,-0.0561,0.0,0.0,0.0
2026-06-13T00:31:30.706,G,23.2,0.0,100.0,52.1,70.0,0.214,0.9783,-0.0602,0.0,0.0,0.0
2026-06-13T00:31:30.868,G,23.0,0.0,100.0,52.0,70.1,0.2139,0.9785,-0.0653,0.0,0.0,0.0
2026-06-13T00:31:31.030,G,22.7,0.0,100.0,51.9,70.1,0.2148,0.9787,-0.0694,0.0,0.0,0.0
2026-06-13T00:31:31.192,G,22.6,0.0,100.0,51.8,70.2,0.2162,0.9773,-0.0704,0.0,0.0,0.0
2026-06-13T00:31:31.354,G,22.5,0.0,100.0,51.7,70.0,0.217,0.9768,-0.0712,0.0,0.0,0.0
2026-06-13T00:31:31.516,G,22.4,0.0,100.0,51.5,69.6,0.2179,0.977,-0.0723,0.0,0.0,0.0
2026-06-13T00:31:31.678,G,22.3,0.0,100.0,51.3,69.5,0.2192,0.9763,-0.0724,0.0,0.0,0.0
2026-06-13T00:31:31.840,G,22.3,0.0,100.0,51.2,69.4,0.2196,0.9761,-0.0719,0.0,0.0,0.0
2026-06-13T00:31:32.002,G,22.2,0.0,100.0,51.0,69.3,0.2196,0.9758,-0.0719,0.0,0.0,0.0
2026-06-13T00:31:32.164,G,22.2,0.0,100.0,50.9,69.4,0.2203,0.9756,-0.0698,0.0,0.0,0.0
2026-06-13T00:31:32.326,G,22.3,0.0,100.0,50.8,69.5,0.2208,0.9763,-0.0698,0.0,0.0,0.0
2026-06-13T00:31:32.488,G,22.4,0.0,100.0,50.7,69.5,0.2211,0.9774,-0.0694,0.0,0.0,0.0
2026-06-13T00:31:32.650,G,22.5,0.0,100.0,50.6,69.6,0.221,0.977,-0.0694,0.0,0.0,0.0
2026-06-13T00:31:32.812,G,22.6,0.0,100.0,50.4,69.6,0.2213,0.9771,-0.0683,0.0,0.0,0.0
2026-06-13T00:31:32.974,G,22.6,0.0,100.0,50.3,69.8,0.2217,0.9765,-0.0696,0.0,0.0,0.0
2026-06-13T00:31:33.136,G,22.7,0.0,100.0,50.2,70.0,0.2226,0.9753,-0.0674,0.0,0.0,0.0
2026-06-13T00:31:33.298,G,22.7,0.0,100.0,50.1,69.9,0.223,0.9761,-0.0638,0.0,0.0,0.0
2026-06-13T00:31:33.460,G,22.6,0.0,100.0,50.3,69.8,0.2232,0.9755,-0.0607,0.0,0.0,0.0
2026-06-13T00:31:33.622,G,22.5,0.0,100.0,50.3,69.8,0.2253,0.9748,-0.0607,0.0,0.0,0.0
2026-06-13T00:31:33.784,G,22.4,0.0,100.0,50.3,70.0,0.2255,0.9752,-0.0577,0.0,0.0,0.0
2026-06-13T00:31:33.946,G,22.2,0.0,100.0,50.5,70.1,0.2262,0.9746,-0.0564,0.0,0.0,0.0
2026-06-13T00:31:34.108,G,22.0,0.0,100.0,50.4,70.2,0.2282,0.9742,-0.0567,0.0,0.0,0.0
2026-06-13T00:31:34.270,G,21.8,0.0,100.0,50.2,70.4,0.2284,0.9752,-0.056,0.0,0.0,0.0
2026-06-13T00:31:34.432,G,21.3,0.0,100.0,49.7,70.5,0.2283,0.9764,-0.0556,0.0,0.0,0.0
2026-06-13T00:31:34.594,G,21.0,0.0,100.0,49.5,70.7,0.229,0.9762,-0.0557,0.0,0.0,0.0
2026-06-13T00:31:34.756,G,20.9,0.0,100.0,49.2,70.8,0.2299,0.9772,-0.0579,0.0,0.0,0.0
2026-06-13T00:31:34.918,G,20.8,0.0,100.0,49.0,70.8,0.2309,0.9767,-0.0592,0.0,0.0,0.0
2026-06-13T00:31:35.080,G,20.5,0.0,100.0,48.7,70.9,0.2314,0.9747,-0.0562,0.0,0.0,0.0
2026-06-13T00:31:35.242,G,20.4,0.0,100.0,48.2,70.9,0.2323,0.9734,-0.0573,0.0,0.0,0.0
2026-06-13T00:31:35.404,G,20.3,0.0,100.0,47.7,71.1,0.2312,0.9744,-0.0561,0.0,0.0,0.0
2026-06-13T00:31:35.566,G,20.4,0.0,100.0,47.2,71.5,0.2318,0.9731,-0.0554,0.0,0.0,0.0
2026-06-13T00:31:35.728,G,20.5,0.0,100.0,46.7,71.9,0.2322,0.9734,-0.0558,0.0,0.0,0.0
2026-06-13T00:31:35.890,G,20.7,0.0,100.0,46.3,72.1,0.2334,0.9746,-0.0556,0.0,0.0,0.0
2026-06-13T00:31:36.052,G,21.0,0.0,100.0,45.8,72.3,0.2336,0.9749,-0.0546,0.0,0.0,0.0
2026-06-13T00:31:36.214,G,21.1,0.0,100.0,45.4,72.2,0.2349,0.9732,-0.0554,0.0,0.0,0.0
2026-06-13T00:31:36.376,G,21.3,0.0,100.0,44.9,72.1,0.2349,0.9688,-0.0529,0.0,0.0,0.0
2026-06-13T00:33:35.988,H,13.9,0.0,0.0,19.7,68.7,1.0087,0.1691,-0.0277,0.0,0.0,0.0
2026-06-13T00:33:35.988,H,13.6,0.0,0.0,19.5,68.4,1.0104,0.1686,-0.0312,0.0,0.0,0.0
2026-06-13T00:33:35.989,H,13.6,0.0,0.0,19.4,68.2,1.0089,0.1751,-0.031,0.0,0.0,0.0
2026-06-13T00:33:35.989,H,13.4,0.0,0.0,19.4,68.0,1.0105,0.1831,-0.0332,0.0,0.0,0.0
2026-06-13T00:33:35.989,H,13.1,0.0,0.0,19.4,67.9,1.0119,0.1872,-0.0354,0.0,0.0,0.0
2026-06-13T00:33:35.990,H,13.4,0.0,0.0,19.1,67.8,1.0104,0.1877,-0.0377,0.0,0.0,0.0
2026-06-13T00:33:35.990,H,12.8,0.0,0.0,18.8,67.8,1.0123,0.1871,-0.0446,0.0,0.0,0.0
2026-06-13T00:33:35.991,H,11.9,0.0,0.0,18.9,67.9,1.0105,0.1872,-0.0498,0.0,0.0,0.0
2026-06-13T00:33:35.991,H,10.9,0.0,0.0,18.8,67.9,1.0108,0.1853,-0.0531,0.0,0.0,0.0
2026-06-13T00:33:35.997,H,410.7,0.0,0.0,21.6,68.1,1.0089,0.1778,-0.0597,0.0,0.0,0.0
2026-06-13T00:33:36.056,H,10.7,0.0,0.0,21.6,68.1,1.0089,0.1761,-0.0601,0.0,0.0,0.0
2026-06-13T00:33:36.115,H,10.8,0.0,0.0,21.4,68.1,1.0087,0.1774,-0.0599,0.0,0.0,0.0
2026-06-13T00:33:36.174,H,10.8,0.0,0.0,21.2,68.1,1.0093,0.1775,-0.0598,0.0,0.0,0.0
2026-06-13T00:33:36.233,H,10.8,0.0,0.0,20.8,68.1,1.0084,0.1763,-0.0587,0.0,0.0,0.0
2026-06-13T00:33:36.292,H,10.7,0.0,0.0,20.4,68.1,1.0072,0.1778,-0.0597,0.0,0.0,0.0
2026-06-13T00:33:36.351,H,11.1,0.0,0.0,20.0,68.1,1.0082,0.1787,-0.0595,0.0,0.0,0.0
2026-06-13T00:33:36.410,H,11.2,0.0,0.0,19.5,68.2,1.0073,0.1788,-0.0584,0.0,0.0,0.0
2026-06-13T00:33:36.469,H,11.4,0.0,0.0,19.0,68.2,1.0082,0.1794,-0.0581,0.0,0.0,0.0
2026-06-13T00:33:36.528,H,11.6,0.0,0.0,18.8,68.2,1.0079,0.179,-0.0582,0.0,0.0,0.0
2026-06-13T00:33:36.587,H,11.6,0.0,0.0,18.6,68.2,1.0091,0.1793,-0.058,0.0,0.0,0.0
2026-06-13T00:33:36.646,H,11.7,0.0,0.0,18.4,68.3,1.0091,0.1788,-0.0574,0.0,0.0,0.0
2026-06-13T00:33:36.705,H,11.7,0.0,0.0,18.4,68.3,1.0093,0.1791,-0.0568,0.0,0.0,0.0
2026-06-13T00:33:36.764,H,11.9,0.0,0.0,18.5,68.3,1.0094,0.179,-0.0574,0.0,0.0,0.0
2026-06-13T00:33:36.823,H,12.1,0.0,0.0,18.6,68.3,1.0098,0.1798,-0.0569,0.0,0.0,0.0
2026-06-13T00:33:36.882,H,12.2,0.0,0.0,18.7,68.3,1.0111,0.1793,-0.0569,0.0,0.0,0.0
2026-06-13T00:33:36.941,H,12.3,0.0,0.0,18.8,68.3,1.0108,0.1812,-0.0558,0.0,0.0,0.0
2026-06-13T00:33:37.000,H,12.5,0.0,0.0,18.9,68.4,1.0101,0.182,-0.0552,0.0,0.0,0.0
2026-06-13T00:33:37.059,H,12.7,0.0,0.0,19.2,68.4,1.0099,0.1796,-0.0559,0.0,0.0,0.0
2026-06-13T00:33:37.118,H,12.9,0.0,0.0,19.3,68.4,1.0098,0.1824,-0.0554,0.0,0.0,0.0
2026-06-13T00:33:37.177,H,13.4,0.0,0.0,19.3,68.5,1.0094,0.182,-0.0541,0.0,0.0,0.0
2026-06-13T00:33:37.236,H,13.7,0.0,0.0,19.3,68.5,1.0084,0.1814,-0.0537,0.0,0.0,0.0
2026-06-13T00:33:37.295,H,14.0,0.0,0.0,19.3,68.5,1.0088,0.1805,-0.053,0.0,0.0,0.0
2026-06-13T00:33:37.354,H,14.2,0.0,0.0,19.4,68.6,1.0082,0.1794,-0.0534,0.0,0.0,0.0
2026-06-13T00:33:37.413,H,14.3,0.0,0.0,19.6,68.6,1.0092,0.179,-0.0526,0.0,0.0,0.0
2026-06-13T00:33:37.472,H,14.7,0.0,0.0,19.6,68.6,1.0088,0.1776,-0.052,0.0,0.0,0.0
2026-06-13T00:33:37.531,H,14.9,0.0,0.0,19.6,68.6,1.0096,0.1768,-0.0516,0.0,0.0,0.0
2026-06-13T00:33:37.590,H,15.0,0.0,0.0,19.6,68.6,1.0097,0.1765,-0.0517,0.0,0.0,0.0
2026-06-13T00:33:37.649,H,15.3,0.0,0.0,19.6,68.6,1.0094,0.1755,-0.0507,0.0,0.0,0.0
2026-06-13T00:33:37.708,H,15.4,0.0,0.0,19.8,68.6,1.0088,0.1753,-0.0496,0.0,0.0,0.0
2026-06-13T00:33:37.767,H,15.4,0.0,0.0,20.0,68.6,1.0102,0.175,-0.0496,0.0,0.0,0.0
2026-06-13T00:33:37.826,H,15.5,0.0,0.0,20.0,68.6,1.008,0.1745,-0.049,0.0,0.0,0.0
2026-06-13T00:33:37.885,H,15.6,0.0,0.0,20.0,68.6,1.0075,0.1738,-0.0498,0.0,0.0,0.0
2026-06-13T00:33:37.944,H,15.7,0.0,0.0,20.0,68.6,1.0054,0.1752,-0.046,0.0,0.0,0.0
2026-06-13T00:33:38.003,H,15.8,0.0,0.0,20.2,68.6,1.0121,0.1714,-0.0542,0.0,0.0,0.0
2026-06-13T00:33:38.062,H,15.7,0.0,0.0,20.4,68.7,1.0062,0.1739,-0.0571,0.0,0.0,0.0
2026-06-13T00:33:38.121,H,15.8,0.0,0.0,20.1,68.6,1.0003,0.1773,-0.0577,0.0,0.0,0.0
2026-06-13T00:33:38.180,H,15.8,0.0,0.0,20.0,68.4,1.0032,0.1744,-0.057,0.0,0.0,0.0
2026-06-13T00:33:38.239,H,15.8,0.0,0.0,19.9,68.5,1.0003,0.173,-0.0562,0.0,0.0,0.0
2026-06-13T00:33:38.298,H,15.8,0.0,0.0,19.0,68.5,1.003,0.1718,-0.06,0.0,0.0,0.0
2026-06-13T00:33:38.357,H,15.8,0.0,0.0,18.7,68.5,1.0026,0.1721,-0.0598,0.0,0.0,0.0
2026-06-13T00:33:38.416,H,15.8,0.0,0.0,18.7,68.3,1.0007,0.1744,-0.0596,0.0,0.0,0.0
2026-06-13T00:33:38.475,H,15.2,0.0,0.0,19.1,68.2,1.0017,0.1739,-0.061,0.0,0.0,0.0
2026-06-13T00:33:38.534,H,14.6,0.0,0.0,19.6,68.1,0.9951,0.1782,-0.0621,0.0,0.0,0.0
2026-06-13T00:33:38.593,H,13.9,0.0,0.0,19.3,68.0,0.9962,0.1768,-0.0625,0.0,0.0,0.0
2026-06-13T00:33:38.652,H,13.4,0.0,0.0,18.8,68.0,0.9994,0.1749,-0.0627,0.0,0.0,0.0
2026-06-13T00:33:38.711,H,12.8,0.0,0.0,18.1,68.0,0.9997,0.1754,-0.0659,0.0,0.0,0.0
2026-06-13T00:33:38.770,H,12.2,0.0,0.0,17.9,68.0,1.0013,0.1753,-0.069,0.0,0.0,0.0
2026-06-13T00:33:38.829,H,11.8,0.0,0.0,17.5,68.0,1.0001,0.1742,-0.069,0.0,0.0,0.0
2026-06-13T00:33:38.888,H,11.6,0.0,0.0,17.4,68.0,0.9996,0.1754,-0.0712,0.0,0.0,0.0
2026-06-13T00:33:38.947,H,11.3,0.0,0.0,17.1,68.1,1.0026,0.1726,-0.072,0.0,0.0,0.0
2026-06-13T00:33:39.006,H,10.9,0.0,0.0,17.1,68.1,1.0021,0.1727,-0.0728,0.0,0.0,0.0
2026-06-13T00:33:39.065,H,11.0,0.0,0.0,17.1,68.2,1.0051,0.1698,-0.0763,0.0,0.0,0.0
2026-06-13T00:33:39.124,H,11.2,0.0,0.0,16.6,68.3,1.0059,0.1688,-0.0783,0.0,0.0,0.0
2026-06-13T00:33:39.183,H,11.4,0.0,0.0,16.2,68.4,1.0067,0.1696,-0.0787,0.0,0.0,0.0
2026-06-13T00:33:39.242,H,11.6,0.0,0.0,15.9,68.5,1.0092,0.1687,-0.079,0.0,0.0,0.0
2026-06-13T00:33:39.301,H,11.8,0.0,0.0,16.0,68.7,1.0082,0.1704,-0.0799,0.0,0.0,0.0
2026-06-13T00:33:39.360,H,11.9,0.0,0.0,16.4,68.8,1.0088,0.1684,-0.0808,0.0,0.0,0.0
2026-06-13T00:33:39.419,H,11.8,0.0,0.0,16.3,68.9,1.0098,0.1662,-0.0795,0.0,0.0,0.0
2026-06-13T00:33:39.478,H,10.8,0.0,0.0,16.0,68.9,1.0083,0.1682,-0.0775,0.0,0.0,0.0
2026-06-13T00:33:39.537,H,10.8,0.0,0.0,16.0,68.9,1.0091,0.1665,-0.0762,0.0,0.0,0.0
2026-06-13T00:33:39.596,H,10.7,0.0,0.0,16.4,69.2,1.0042,0.1673,-0.0776,0.0,0.0,0.0
2026-06-13T00:33:39.655,H,10.4,0.0,0.0,16.5,69.5,1.0045,0.1667,-0.0809,0.0,0.0,0.0
2026-06-13T00:33:39.714,H,10.1,0.0,0.0,16.7,69.5,1.0062,0.1702,-0.0858,0.0,0.0,0.0
2026-06-13T00:33:39.773,H,9.8,0.0,0.0,17.3,69.7,1.0085,0.1737,-0.0905,0.0,0.0,0.0
2026-06-13T00:33:39.832,H,9.5,0.0,0.0,17.6,69.8,1.0076,0.1769,-0.0939,0.0,0.0,0.0
2026-06-13T00:33:39.891,H,8.9,0.0,0.0,17.1,70.0,1.0073,0.1782,-0.0942,0.0,0.0,0.0
2026-06-13T00:33:39.950,H,8.9,0.0,0.0,16.0,70.0,1.0061,0.1788,-0.0897,0.0,0.0,0.0
2026-06-13T00:33:40.009,H,8.7,0.0,0.0,16.7,69.8,1.0153,0.1786,-0.0858,0.0,0.0,0.0
2026-06-13T00:33:40.068,H,9.5,0.0,0.0,18.4,69.6,1.0077,0.1665,-0.0899,0.0,0.0,0.0
2026-06-13T00:33:40.127,H,9.4,0.0,0.0,20.7,69.5,1.0063,0.1692,-0.0934,0.0,0.0,0.0
2026-06-13T00:33:40.186,H,9.4,0.0,0.0,23.9,69.5,1.0075,0.1652,-0.0971,0.0,0.0,0.0
2026-06-13T00:33:40.245,H,9.4,0.0,0.0,26.0,68.9,1.0066,0.1629,-0.0969,0.0,0.0,0.0
2026-06-13T00:33:40.304,H,9.6,0.0,0.0,27.8,68.6,1.0057,0.1644,-0.0992,0.0,0.0,0.0
2026-06-13T00:33:40.363,H,9.8,0.0,0.0,29.4,68.4,1.0073,0.1649,-0.0957,0.0,0.0,0.0
2026-06-13T00:33:40.422,H,9.9,0.0,0.0,31.1,68.1,1.0071,0.1637,-0.089,0.0,0.0,0.0
2026-06-13T00:33:40.481,H,10.5,0.0,0.0,32.5,67.8,1.0091,0.164,-0.087,0.0,0.0,0.0
2026-06-13T00:33:40.540,H,10.7,0.0,0.0,33.6,67.3,1.0081,0.1673,-0.0949,0.0,0.0,0.0
2026-06-13T00:33:40.599,H,10.9,0.0,0.0,33.9,66.8,1.0054,0.1636,-0.0873,0.0,0.0,0.0
2026-06-13T00:33:40.658,H,11.0,0.0,0.0,34.0,66.2,1.0101,0.1576,-0.0819,0.0,0.0,0.0
2026-06-13T00:33:40.717,H,11.1,0.0,0.0,34.3,66.1,1.0084,0.1625,-0.0828,0.0,0.0,0.0
2026-06-13T00:33:40.776,H,11.3,0.0,0.0,34.5,66.1,1.0082,0.164,-0.0867,0.0,0.0,0.0
2026-06-13T00:33:40.835,H,11.5,0.0,0.0,34.6,66.1,1.008,0.1607,-0.085,0.0,0.0,0.0
2026-06-13T00:33:40.894,H,11.7,0.0,0.0,35.1,66.1,1.0091,0.1603,-0.0829,0.0,0.0,0.0
2026-06-13T00:33:40.953,H,11.9,0.0,0.0,35.5,66.1,1.012,0.1564,-0.0837,0.0,0.0,0.0
2026-06-13T00:33:41.012,H,12.0,0.0,0.0,35.9,66.0,1.0095,0.1589,-0.0821,0.0,0.0,0.0
2026-06-13T00:33:41.071,H,12.1,0.0,0.0,36.3,66.0,1.0124,0.1581,-0.0813,0.0,0.0,0.0
2026-06-13T00:33:41.130,H,12.1,0.0,0.0,36.7,65.9,1.0112,0.1613,-0.0778,0.0,0.0,0.0
2026-06-13T00:33:41.189,H,12.1,0.0,0.0,37.2,65.8,1.0113,0.1603,-0.0772,0.0,0.0,0.0
2026-06-13T00:33:41.248,H,12.2,0.0,0.0,38.0,65.7,1.0109,0.161,-0.0764,0.0,0.0,0.0
2026-06-13T00:33:41.307,H,12.3,0.0,0.0,38.5,65.7,1.0107,0.1611,-0.0768,0.0,0.0,0.0
2026-06-13T00:33:41.366,H,12.1,0.0,0.0,39.5,65.6,1.0117,0.1583,-0.078,0.0,0.0,0.0
2026-06-13T00:33:41.425,H,11.7,0.0,0.0,40.9,65.6,1.0104,0.1619,-0.0763,0.0,0.0,0.0
2026-06-13T00:33:41.484,H,11.6,0.0,0.0,40.8,65.8,1.011,0.1607,-0.0752,0.0,0.0,0.0
2026-06-13T00:33:41.543,H,11.7,0.0,0.0,40.5,65.9,1.0097,0.1611,-0.0735,0.0,0.0,0.0
2026-06-13T00:33:41.602,H,11.6,0.0,0.0,40.0,65.9,1.0106,0.1594,-0.074,0.0,0.0,0.0
2026-06-13T00:33:41.661,H,11.6,0.0,0.0,38.9,65.9,1.0102,0.161,-0.0734,0.0,0.0,0.0
2026-06-13T00:33:41.720,H,11.6,0.0,0.0,38.2,66.4,1.01,0.1604,-0.0723,0.0,0.0,0.0
2026-06-13T00:33:41.779,H,11.7,0.0,0.0,37.6,66.8,1.0084,0.161,-0.0712,0.0,0.0,0.0
2026-06-13T00:33:41.838,H,11.8,0.0,0.0,36.9,67.1,1.0089,0.1605,-0.0723,0.0,0.0,0.0
2026-06-13T00:33:41.897,H,11.7,0.0,0.0,36.2,67.4,1.0092,0.1615,-0.0713,0.0,0.0,0.0
2026-06-13T00:33:41.956,H,11.9,0.0,0.0,35.4,67.7,1.0092,0.1624,-0.0706,0.0,0.0,0.0
2026-06-13T00:33:42.015,H,12.4,0.0,0.0,35.1,68.2,1.0103,0.1615,-0.07,0.0,0.0,0.0
2026-06-13T00:33:42.074,H,12.4,0.0,0.0,36.0,68.7,1.009,0.1629,-0.0702,0.0,0.0,0.0
2026-06-13T00:33:42.133,H,12.3,0.0,0.0,36.7,69.3,1.01,0.1624,-0.0706,0.0,0.0,0.0
2026-06-13T00:33:42.192,H,12.4,0.0,0.0,37.4,69.3,1.0101,0.1637,-0.0707,0.0,0.0,0.0
2026-06-13T00:33:42.251,H,12.5,0.0,0.0,37.9,69.2,1.0105,0.1629,-0.0708,0.0,0.0,0.0
2026-06-13T00:33:42.310,H,12.5,0.0,0.0,38.3,69.1,1.0102,0.1627,-0.07,0.0,0.0,0.0
2026-06-13T00:33:42.369,H,12.5,0.0,0.0,38.7,69.1,1.0089,0.1628,-0.0705,0.0,0.0,0.0
2026-06-13T00:33:42.428,H,12.5,0.0,0.0,38.9,69.1,1.0096,0.1637,-0.0706,0.0,0.0,0.0
2026-06-13T00:33:42.487,H,12.7,0.0,0.0,39.1,69.0,1.0105,0.1618,-0.0697,0.0,0.0,0.0
2026-06-13T00:33:42.546,H,12.8,0.0,0.0,39.1,68.8,1.0096,0.1571,-0.0662,0.0,0.0,0.0
2026-06-13T00:33:42.605,H,12.8,0.0,0.0,39.2,68.6,1.0112,0.1552,-0.0666,0.0,0.0,0.0
2026-06-13T00:33:42.664,H,13.2,0.0,0.0,39.2,68.4,1.0118,0.1586,-0.07,0.0,0.0,0.0
2026-06-13T00:33:42.723,H,14.9,0.0,0.0,39.3,68.3,1.0102,0.1682,-0.0766,0.0,0.0,0.0
2026-06-13T00:33:42.782,H,15.3,0.0,0.0,39.3,68.1,1.0075,0.1743,-0.0818,0.0,0.0,0.0
2026-06-13T00:33:42.841,H,15.5,0.0,0.0,39.4,68.1,1.0069,0.1714,-0.0807,0.0,0.0,0.0
2026-06-13T00:33:42.900,H,15.7,0.0,0.0,39.1,68.0,1.0045,0.1778,-0.0821,0.0,0.0,0.0
2026-06-13T00:33:42.959,H,15.8,0.0,0.0,39.0,67.9,1.0017,0.1913,-0.087,0.0,0.0,0.0
2026-06-13T00:33:43.018,H,16.0,0.0,0.0,38.7,67.9,0.9996,0.1983,-0.0939,0.0,0.0,0.0
2026-06-13T00:33:43.077,H,16.0,0.0,0.0,38.5,67.9,0.9964,0.2036,-0.0976,0.0,0.0,0.0
2026-06-13T00:33:43.136,H,15.8,0.0,0.0,38.3,68.0,0.9968,0.2059,-0.0987,0.0,0.0,0.0
2026-06-13T00:33:43.195,H,15.6,0.0,0.0,38.0,68.0,0.9978,0.2116,-0.1028,0.0,0.0,0.0
2026-06-13T00:33:43.254,H,15.5,0.0,0.0,37.9,67.9,0.9949,0.2168,-0.1072,0.0,0.0,0.0
2026-06-13T00:33:43.313,H,14.0,0.0,0.0,37.7,67.7,0.9923,0.2197,-0.1105,0.0,0.0,0.0
2026-06-13T00:33:43.372,H,13.7,0.0,0.0,37.4,67.7,0.9915,0.2203,-0.1144,0.0,0.0,0.0
2026-06-13T00:33:43.431,H,13.7,0.0,0.0,36.9,67.5,0.9919,0.2233,-0.1141,0.0,0.0,0.0
2026-06-13T00:33:43.490,H,13.7,0.0,0.0,36.4,67.3,0.9924,0.2256,-0.1158,0.0,0.0,0.0
2026-06-13T00:33:43.549,H,13.6,0.0,0.0,35.7,67.2,0.9907,0.23,-0.1165,0.0,0.0,0.0
2026-06-13T00:33:43.608,H,13.8,0.0,0.0,35.2,67.1,0.9899,0.23,-0.1177,0.0,0.0,0.0
2026-06-13T00:33:43.667,H,14.2,0.0,0.0,34.6,67.0,0.9884,0.2274,-0.1175,0.0,0.0,0.0
2026-06-13T00:33:43.726,H,14.8,0.0,0.0,33.7,66.9,0.9892,0.2295,-0.1156,0.0,0.0,0.0
2026-06-13T00:33:43.785,H,14.9,0.0,0.0,32.7,66.7,0.992,0.2289,-0.1151,0.0,0.0,0.0
2026-06-13T00:33:43.844,H,15.3,0.0,0.0,31.8,66.6,0.993,0.2306,-0.1134,0.0,0.0,0.0
2026-06-13T00:33:43.903,H,16.0,0.0,0.0,31.0,66.4,0.9936,0.229,-0.1144,0.0,0.0,0.0
2026-06-13T00:33:43.962,H,16.8,0.0,0.0,30.3,66.4,0.9916,0.2269,-0.1165,0.0,0.0,0.0
2026-06-13T00:33:44.021,H,17.5,0.0,0.0,29.5,66.4,0.9898,0.2245,-0.116,0.0,0.0,0.0
2026-06-13T00:33:44.080,H,18.2,0.0,0.0,28.8,66.5,0.9925,0.2227,-0.1118,0.0,0.0,0.0
2026-06-13T00:33:44.139,H,18.8,0.0,0.0,28.0,66.5,0.9937,0.2193,-0.1088,0.0,0.0,0.0
2026-06-13T00:33:44.198,H,19.3,0.0,0.0,27.1,66.5,0.9935,0.2188,-0.1081,0.0,0.0,0.0
2026-06-13T00:33:44.257,H,19.6,0.0,0.0,26.4,66.5,0.9943,0.2184,-0.1072,0.0,0.0,0.0
2026-06-13T00:33:44.316,H,20.2,0.0,0.0,25.7,66.5,0.9947,0.2183,-0.1053,0.0,0.0,0.0
2026-06-13T00:33:44.375,H,21.1,0.0,0.0,25.0,66.5,0.9948,0.2151,-0.1033,0.0,0.0,0.0
2026-06-13T00:33:44.434,H,21.3,0.0,0.0,24.1,66.6,0.995,0.2144,-0.1034,0.0,0.0,0.0
2026-06-13T00:33:44.493,H,21.3,0.0,0.0,23.2,66.6,0.9962,0.2158,-0.1018,0.0,0.0,0.0
2026-06-13T00:33:44.552,H,21.1,0.0,0.0,22.3,66.5,0.9988,0.2141,-0.0994,0.0,0.0,0.0
2026-06-13T00:33:44.611,H,21.1,0.0,0.0,21.4,66.4,0.9996,0.2135,-0.0986,0.0,0.0,0.0
2026-06-13T00:33:44.670,H,21.0,0.0,0.0,20.4,66.2,0.9993,0.2125,-0.0991,0.0,0.0,0.0
2026-06-13T00:33:44.729,H,21.1,0.0,0.0,19.4,66.1,0.9992,0.2121,-0.0973,0.0,0.0,0.0
2026-06-13T00:33:44.788,H,21.0,0.0,0.0,18.5,66.0,1.0002,0.2109,-0.0954,0.0,0.0,0.0
2026-06-13T00:33:44.847,H,19.9,0.0,0.0,17.7,65.9,0.9994,0.2109,-0.0945,0.0,0.0,0.0
2026-06-13T00:33:44.906,H,18.9,0.0,0.0,17.4,65.9,0.999,0.2085,-0.0935,0.0,0.0,0.0
2026-06-13T00:33:44.965,H,17.9,0.0,0.0,16.8,65.9,0.9988,0.2082,-0.0922,0.0,0.0,0.0
2026-06-13T00:33:45.024,H,17.1,0.0,0.0,16.7,65.9,1.0001,0.2085,-0.0905,0.0,0.0,0.0
2026-06-13T00:33:45.083,H,16.2,0.0,0.0,16.3,65.9,1.0007,0.204,-0.0899,0.0,0.0,0.0
2026-06-13T00:33:45.142,H,15.5,0.0,0.0,15.9,65.9,1.0009,0.2041,-0.0889,0.0,0.0,0.0
2026-06-13T00:33:45.201,H,14.9,0.0,0.0,16.0,66.0,1.001,0.2014,-0.0882,0.0,0.0,0.0
2026-06-13T00:33:45.260,H,14.2,0.0,0.0,16.1,66.0,1.0016,0.2016,-0.0872,0.0,0.0,0.0
2026-06-13T00:33:45.319,H,13.4,0.0,0.0,16.2,66.0,1.0031,0.202,-0.0859,0.0,0.0,0.0
2026-06-13T00:33:45.378,H,12.7,0.0,0.0,16.3,66.0,1.0039,0.1956,-0.0834,0.0,0.0,0.0
2026-06-13T00:33:45.437,H,12.9,0.0,0.0,16.4,66.0,1.0027,0.1978,-0.0853,0.0,0.0,0.0
2026-06-13T00:33:45.496,H,13.0,0.0,0.0,16.5,66.0,1.002,0.211,-0.0917,0.0,0.0,0.0
2026-06-13T00:33:45.555,H,13.0,0.0,0.0,16.6,66.1,0.9998,0.2191,-0.0954,0.0,0.0,0.0
2026-06-13T00:33:45.614,H,12.8,0.0,0.0,16.9,66.1,0.9988,0.2124,-0.0959,0.0,0.0,0.0
2026-06-13T00:33:45.673,H,12.7,0.0,0.0,17.0,66.2,0.9983,0.2059,-0.0964,0.0,0.0,0.0
2026-06-13T00:33:45.732,H,12.6,0.0,0.0,16.7,66.3,0.9992,0.2054,-0.0955,0.0,0.0,0.0
2026-06-13T00:33:45.791,H,12.4,0.0,0.0,16.4,66.3,0.9992,0.2075,-0.0969,0.0,0.0,0.0
2026-06-13T00:33:45.850,H,12.3,0.0,0.0,16.2,66.3,0.9993,0.2053,-0.0961,0.0,0.0,0.0
2026-06-13T00:33:45.909,H,12.2,0.0,0.0,16.1,66.3,0.9984,0.2037,-0.0957,0.0,0.0,0.0
2026-06-13T00:33:45.968,H,12.4,0.0,0.0,15.8,66.3,0.999,0.204,-0.0975,0.0,0.0,0.0
2026-06-13T00:33:46.027,H,12.4,0.0,0.0,15.6,66.3,0.9996,0.2061,-0.0976,0.0,0.0,0.0
2026-06-13T00:34:40.629,I,28.5,93.8,94.3,23.9,0.0,0.9874,-0.2874,0.053,0.0,0.0,0.0
2026-06-13T00:34:40.792,I,28.4,93.9,95.5,23.7,0.0,0.9884,-0.2857,0.0548,0.0,0.0,0.0
2026-06-13T00:34:40.954,I,28.4,93.9,96.8,23.4,0.0,0.988,-0.2845,0.0545,0.0,0.0,0.0
2026-06-13T00:34:41.116,I,28.4,94.0,98.2,23.4,0.0,0.987,-0.2875,0.0483,0.0,0.0,0.0
2026-06-13T00:34:41.277,I,28.3,94.1,99.6,23.4,0.0,0.9874,-0.2854,0.0486,0.0,0.0,0.0
2026-06-13T00:34:41.440,I,28.3,94.2,100.0,23.4,0.0,0.9918,-0.2743,0.06,0.0,0.0,0.0
2026-06-13T00:34:41.601,I,28.3,94.4,100.0,23.4,0.0,0.9896,-0.2735,0.0575,0.0,0.0,0.0
2026-06-13T00:34:41.764,I,28.3,94.5,100.0,23.4,0.0,0.9899,-0.2718,0.0529,0.0,0.0,0.0
2026-06-13T00:34:41.926,I,28.3,94.6,100.0,23.6,0.0,0.9917,-0.268,0.0542,0.0,0.0,0.0
2026-06-13T00:34:42.088,I,28.3,94.8,100.0,23.9,0.0,0.992,-0.2666,0.0501,0.0,0.0,0.0
2026-06-13T00:34:42.250,I,28.3,95.0,100.0,24.2,0.0,0.9933,-0.2648,0.0476,0.0,0.0,0.0
2026-06-13T00:34:42.412,I,28.3,95.1,100.0,24.3,0.0,0.9936,-0.264,0.0467,0.0,0.0,0.0
2026-06-13T00:34:42.574,I,28.4,95.3,100.0,24.5,0.0,0.9937,-0.2616,0.042,0.0,0.0,0.0
2026-06-13T00:34:42.736,I,28.5,95.5,100.0,24.8,0.0,0.9939,-0.262,0.0421,0.0,0.0,0.0
2026-06-13T00:34:42.898,I,28.5,95.6,100.0,24.8,0.0,0.9944,-0.2618,0.0403,0.0,0.0,0.0
2026-06-13T00:34:43.060,I,28.4,95.7,100.0,24.9,0.0,0.9943,-0.2622,0.0385,0.0,0.0,0.0
2026-06-13T00:34:43.221,I,28.3,95.7,100.0,24.8,0.0,0.9943,-0.2607,0.0366,0.0,0.0,0.0
2026-06-13T00:34:43.384,I,28.4,95.8,100.0,24.9,0.0,0.9956,-0.2604,0.0365,0.0,0.0,0.0
2026-06-13T00:34:43.546,I,28.4,95.8,98.9,24.9,0.0,0.9946,-0.2616,0.0353,0.0,0.0,0.0
2026-06-13T00:34:43.708,I,28.5,95.9,97.3,24.9,0.0,0.9952,-0.262,0.0344,0.0,0.0,0.0
2026-06-13T00:34:43.870,I,28.5,96.0,94.8,24.9,0.0,0.9949,-0.2627,0.0331,0.0,0.0,0.0
2026-06-13T00:34:44.032,I,28.5,96.0,92.4,24.8,0.0,0.9944,-0.2636,0.0334,0.0,0.0,0.0
2026-06-13T00:34:44.194,I,28.4,96.1,90.7,24.3,0.0,0.9938,-0.2636,0.0323,0.0,0.0,0.0
2026-06-13T00:34:44.356,I,28.4,96.1,87.4,23.8,0.0,0.9932,-0.2654,0.0308,0.0,0.0,0.0
2026-06-13T00:34:44.518,I,28.4,96.2,84.1,23.7,0.0,0.9918,-0.2676,0.0299,0.0,0.0,0.0
2026-06-13T00:34:44.680,I,28.5,96.2,81.3,23.3,0.0,0.9917,-0.2673,0.0274,0.0,0.0,0.0
2026-06-13T00:34:44.842,I,28.6,96.3,80.5,23.6,0.0,0.9913,-0.2677,0.0254,0.0,0.0,0.0
2026-06-13T00:34:45.004,I,28.6,96.3,79.5,23.7,0.0,0.9918,-0.2699,0.0238,0.0,0.0,0.0
2026-06-13T00:34:45.166,I,28.7,96.4,78.2,23.5,0.0,0.9906,-0.2687,0.0214,0.0,0.0,0.0
2026-06-13T00:34:45.328,I,28.6,96.5,76.3,23.9,0.0,0.9902,-0.2698,0.0183,0.0,0.0,0.0
2026-06-13T00:34:45.490,I,28.7,96.5,74.2,23.9,0.0,0.9899,-0.2683,0.0145,0.0,0.0,0.0
2026-06-13T00:34:45.652,I,28.7,96.6,72.1,23.9,0.0,0.9903,-0.2681,0.0147,0.0,0.0,0.0
2026-06-13T00:34:45.814,I,28.8,96.7,70.3,24.6,0.0,0.9948,-0.2651,0.0166,0.0,0.0,0.0
2026-06-13T00:34:45.976,I,28.8,96.8,68.5,25.4,0.0,0.9944,-0.2625,0.0169,0.0,0.0,0.0
2026-06-13T00:34:46.138,I,28.8,96.9,66.6,25.9,0.0,0.9964,-0.2597,0.0212,0.0,0.0,0.0
2026-06-13T00:34:46.300,I,28.8,97.1,65.1,25.8,0.0,0.9969,-0.2571,0.0257,0.0,0.0,0.0
2026-06-13T00:34:46.462,I,28.7,97.2,63.2,25.8,0.0,0.9972,-0.2543,0.0274,0.0,0.0,0.0
2026-06-13T00:34:46.624,I,28.6,97.3,60.7,25.6,0.0,0.9971,-0.2526,0.0286,0.0,0.0,0.0
2026-06-13T00:34:46.786,I,28.5,97.4,58.5,25.5,0.0,0.9981,-0.2496,0.0283,0.0,0.0,0.0
2026-06-13T00:34:46.948,I,28.5,97.5,55.9,25.4,0.0,0.9986,-0.2474,0.0284,0.0,0.0,0.0
2026-06-13T00:34:47.110,I,28.5,97.5,53.0,25.3,0.0,0.9992,-0.2456,0.0291,0.0,0.0,0.0
2026-06-13T00:34:47.272,I,28.4,97.5,50.4,25.3,0.0,0.9992,-0.2421,0.0293,0.0,0.0,0.0
2026-06-13T00:34:47.434,I,28.4,97.5,48.0,25.2,0.0,1.0,-0.2392,0.0294,0.0,0.0,0.0
2026-06-13T00:34:47.596,I,28.4,97.5,45.5,25.6,0.0,1.0015,-0.2377,0.0304,0.0,0.0,0.0
2026-06-13T00:34:47.758,I,28.2,97.5,43.2,25.5,0.0,1.0015,-0.2357,0.0301,0.0,0.0,0.0
2026-06-13T00:34:47.920,I,28.1,97.5,43.8,25.3,0.0,1.0021,-0.2353,0.0311,0.0,0.0,0.0
2026-06-13T00:34:48.082,I,28.1,97.5,44.6,25.1,0.0,1.0023,-0.234,0.032,0.0,0.0,0.0
2026-06-13T00:34:48.244,I,28.1,97.4,45.5,25.2,0.0,1.0021,-0.2327,0.0322,0.0,0.0,0.0
2026-06-13T00:34:48.406,I,28.0,97.4,47.8,25.5,0.0,1.0022,-0.2325,0.031,0.0,0.0,0.0
2026-06-13T00:34:48.568,I,28.1,97.4,50.0,25.6,0.0,1.0018,-0.2313,0.0298,0.0,0.0,0.0
2026-06-13T00:34:48.730,I,28.1,97.3,51.8,25.9,0.0,1.0021,-0.2314,0.0285,0.0,0.0,0.0
2026-06-13T00:34:48.892,I,28.2,97.3,51.1,26.2,0.0,1.0024,-0.2322,0.0291,0.0,0.0,0.0
2026-06-13T00:34:49.054,I,28.3,97.3,48.9,26.2,0.0,1.002,-0.2318,0.0277,0.0,0.0,0.0
2026-06-13T00:34:49.216,I,28.3,97.3,47.0,26.4,0.0,1.0015,-0.2322,0.0278,0.0,0.0,0.0
2026-06-13T00:34:49.378,I,28.5,97.2,45.6,26.6,0.0,1.0014,-0.2307,0.0276,0.0,0.0,0.0
2026-06-13T00:34:49.540,I,28.6,97.2,46.5,27.0,0.0,1.001,-0.2304,0.0276,0.0,0.0,0.0
2026-06-13T00:34:49.702,I,28.7,97.2,47.3,27.3,0.0,1.0021,-0.2303,0.0273,0.0,0.0,0.0
2026-06-13T00:34:49.864,I,28.8,97.2,48.1,26.7,0.0,1.0021,-0.2307,0.0268,0.0,0.0,0.0
2026-06-13T00:34:50.026,I,28.9,97.2,48.8,25.9,0.0,1.0024,-0.231,0.0253,0.0,0.0,0.0
2026-06-13T00:34:50.188,I,28.9,97.1,50.3,25.2,0.0,1.0022,-0.2298,0.0246,0.0,0.0,0.0
2026-06-13T00:34:50.350,I,28.9,97.1,50.1,25.7,0.0,1.0022,-0.2297,0.0252,0.0,0.0,0.0
2026-06-13T00:34:50.512,I,28.9,97.1,51.4,25.6,0.0,1.0023,-0.2285,0.0245,0.0,0.0,0.0
2026-06-13T00:34:50.674,I,28.9,97.1,53.1,25.4,0.0,1.0029,-0.2276,0.0253,0.0,0.0,0.0
2026-06-13T00:35:12.868,J,26.7,91.3,38.9,31.8,0.0,-0.8283,0.4538,0.2693,9.9179,0.0,0.0
2026-06-13T00:35:13.030,J,26.7,91.3,39.0,32.6,0.0,-0.8287,0.4557,0.2689,9.6237,0.0,0.0
2026-06-13T00:35:13.192,J,26.7,91.3,39.3,33.1,0.0,-0.8294,0.4568,0.2715,9.3208,0.0,0.0
2026-06-13T00:35:13.354,J,26.7,91.3,39.6,33.4,0.0,-0.8265,0.454,0.2722,8.9519,0.0,0.0
2026-06-13T00:35:13.516,J,26.8,91.3,39.6,33.6,0.0,-0.8249,0.4528,0.2719,9.0306,0.0,0.0
2026-06-13T00:35:13.678,J,26.8,91.3,38.7,33.8,0.0,-0.8247,0.4499,0.2688,9.1091,0.0,0.0
2026-06-13T00:35:13.840,J,26.8,91.3,38.1,33.8,0.0,-0.8251,0.4492,0.2637,9.4179,0.0,0.0
2026-06-13T00:35:14.002,J,26.8,91.3,37.6,33.7,0.0,-0.8287,0.4516,0.2597,9.6203,0.0,0.0
2026-06-13T00:35:14.164,J,26.8,91.3,37.4,33.6,0.0,-0.8307,0.4533,0.257,9.5948,0.0,0.0
2026-06-13T00:35:14.326,J,26.8,91.4,37.1,33.7,0.0,-0.8318,0.4545,0.2572,9.4825,0.0,0.0
2026-06-13T00:35:14.488,J,26.8,91.4,37.0,33.8,0.0,-0.8312,0.4553,0.2601,9.083,0.0,0.0
2026-06-13T00:35:14.650,J,26.8,91.5,36.8,34.0,0.0,-0.8294,0.4532,0.2616,9.015,0.0,0.0
2026-06-13T00:35:14.812,J,26.8,91.5,36.5,34.0,0.0,-0.8277,0.4506,0.2604,8.8798,0.0,0.0
2026-06-13T00:35:14.974,J,26.9,91.6,36.5,34.0,0.0,-0.8268,0.4486,0.258,8.9238,0.0,0.0
2026-06-13T00:35:15.136,J,26.9,91.7,36.3,34.0,0.0,-0.8266,0.4489,0.2524,9.2519,0.0,0.0
2026-06-13T00:35:15.298,J,26.9,91.8,36.1,34.0,0.0,-0.8298,0.4513,0.2488,9.4372,0.0,0.0
2026-06-13T00:35:15.460,J,26.9,91.9,35.9,33.9,0.0,-0.8316,0.4557,0.2462,9.6087,0.0,0.0
2026-06-13T00:35:15.622,J,26.9,91.9,35.9,34.3,0.0,-0.832,0.4585,0.247,9.5118,0.0,0.0
2026-06-13T00:35:15.784,J,26.9,91.9,36.0,34.7,0.0,-0.833,0.4605,0.251,9.0368,0.0,0.0
2026-06-13T00:35:15.947,J,26.9,92.0,36.1,35.0,0.0,-0.8305,0.4585,0.2532,8.8307,0.0,0.0
2026-06-13T00:35:16.108,J,26.9,92.0,36.1,35.3,0.0,-0.8276,0.4555,0.2533,8.7338,0.0,0.0
2026-06-13T00:35:16.270,J,27.0,92.0,36.1,35.4,0.0,-0.827,0.4529,0.2504,8.9305,0.0,0.0
2026-06-13T00:35:16.432,J,27.0,92.0,36.4,35.6,0.0,-0.8271,0.452,0.2468,9.1282,0.0,0.0
2026-06-13T00:35:16.594,J,27.0,92.0,36.7,35.8,0.0,-0.8294,0.4547,0.2438,9.2969,0.0,0.0
2026-06-13T00:35:16.756,J,27.0,92.0,36.9,35.9,0.0,-0.8304,0.4572,0.2422,9.3869,0.0,0.0
2026-06-13T00:35:16.919,J,27.0,91.9,37.1,36.1,0.0,-0.8314,0.4588,0.2448,9.1962,0.0,0.0
2026-06-13T00:35:17.080,J,27.1,91.9,37.3,36.1,0.0,-0.8319,0.4593,0.2478,8.9719,0.0,0.0
2026-06-13T00:35:17.242,J,27.1,91.9,37.6,36.4,0.0,-0.8305,0.4572,0.2502,8.7089,0.0,0.0
2026-06-13T00:35:17.405,J,27.1,91.8,37.9,36.6,0.0,-0.8285,0.4554,0.2509,8.6478,0.0,0.0
2026-06-13T00:35:17.567,J,27.1,91.8,38.1,36.9,0.0,-0.8278,0.4521,0.2497,8.6623,0.0,0.0
2026-06-13T00:35:17.728,J,27.1,91.7,38.2,37.2,0.0,-0.8277,0.4502,0.2442,8.7555,0.0,0.0
2026-06-13T00:35:17.890,J,27.1,91.7,38.4,37.5,0.0,-0.8293,0.4529,0.2394,9.2272,0.0,0.0
2026-06-13T00:35:18.052,J,27.1,91.6,38.8,37.6,0.0,-0.8315,0.4565,0.238,9.3448,0.0,0.0
2026-06-13T00:35:18.214,J,27.1,91.5,39.0,37.7,0.0,-0.8316,0.4588,0.2375,9.33,0.0,0.0
2026-06-13T00:35:18.377,J,27.1,91.5,39.2,37.7,0.0,-0.8318,0.462,0.2393,9.0305,0.0,0.0
2026-06-13T00:35:18.539,J,27.1,91.4,39.5,37.8,0.0,-0.832,0.4632,0.2401,8.6647,0.0,0.0
2026-06-13T00:35:18.701,J,27.0,91.3,40.0,37.8,0.0,-0.8292,0.4621,0.2428,8.5508,0.0,0.0
2026-06-13T00:35:18.863,J,27.0,91.3,40.6,38.0,0.0,-0.8267,0.4609,0.2423,8.6528,0.0,0.0
2026-06-13T00:35:19.025,J,27.0,91.2,41.1,38.2,0.0,-0.8254,0.4602,0.239,8.8661,0.0,0.0
2026-06-13T00:35:19.187,J,27.0,91.2,41.5,38.4,0.0,-0.8272,0.4632,0.2358,9.2679,0.0,0.0
2026-06-13T00:35:19.349,J,27.0,91.1,41.9,38.5,0.0,-0.8275,0.4681,0.2323,9.2425,0.0,0.0
2026-06-13T00:35:19.511,J,27.0,91.1,42.3,38.8,0.0,-0.8277,0.4704,0.2346,9.1822,0.0,0.0
2026-06-13T00:35:19.673,J,26.9,91.0,42.6,38.6,0.0,-0.8275,0.4714,0.2399,9.0082,0.0,0.0
2026-06-13T00:35:19.835,J,26.9,91.0,42.8,38.5,0.0,-0.8245,0.471,0.2409,8.7484,0.0,0.0
2026-06-13T00:35:19.997,J,26.9,90.9,43.1,38.4,0.0,-0.8237,0.4673,0.2434,8.6323,0.0,0.0
2026-06-13T00:35:20.159,J,27.0,90.8,43.4,38.1,0.0,-0.8245,0.4646,0.2422,8.6307,0.0,0.0
2026-06-13T00:35:20.321,J,27.0,90.8,43.6,37.9,0.0,-0.8239,0.4649,0.2378,8.9851,0.0,0.0
2026-06-13T00:35:20.483,J,27.0,90.8,43.8,37.8,0.0,-0.8271,0.466,0.236,9.1078,0.0,0.0
2026-06-13T00:35:20.645,J,27.0,90.7,44.1,37.6,0.0,-0.8292,0.4678,0.233,9.1717,0.0,0.0
2026-06-13T00:35:20.807,J,27.0,90.7,44.3,37.6,0.0,-0.8302,0.4688,0.2339,8.9911,0.0,0.0
2026-06-13T00:35:20.969,J,27.0,90.6,44.5,37.4,0.0,-0.8288,0.468,0.2378,8.7987,0.0,0.0
2026-06-13T00:35:21.131,J,27.0,90.6,44.8,37.3,0.0,-0.8289,0.4642,0.2385,8.8905,0.0,0.0
2026-06-13T00:35:21.293,J,27.0,90.6,45.0,37.1,0.0,-0.8282,0.4664,0.2355,8.8799,0.0,0.0
2026-06-13T00:35:21.455,J,27.0,90.5,45.2,37.0,0.0,-0.8284,0.4655,0.238,8.9796,0.0,0.0
2026-06-13T00:35:21.617,J,26.9,90.5,45.5,36.8,0.0,-0.8272,0.4659,0.2373,8.9067,0.0,0.0
2026-06-13T00:35:21.779,J,26.9,90.5,45.9,36.7,0.0,-0.8275,0.467,0.2378,8.8594,0.0,0.0
2026-06-13T00:35:21.941,J,26.9,90.4,46.2,36.5,0.0,-0.8284,0.4693,0.2372,8.8321,0.0,0.0
2026-06-13T00:35:22.103,J,26.9,90.4,46.6,36.5,0.0,-0.829,0.4692,0.2383,8.777,0.0,0.0
2026-06-13T00:35:22.265,J,26.9,90.4,46.9,36.3,0.0,-0.8281,0.4682,0.2393,8.642,0.0,0.0
2026-06-13T00:35:22.427,J,26.9,90.4,47.2,36.3,0.0,-0.8266,0.4688,0.2394,8.6868,0.0,0.0
2026-06-13T00:35:22.589,J,26.9,90.4,47.4,36.3,0.0,-0.8249,0.4652,0.2412,8.7256,0.0,0.0
2026-06-13T00:35:22.751,J,26.8,90.5,47.4,36.2,0.0,-0.8252,0.4666,0.2415,8.8216,0.0,0.0
2026-06-13T00:35:22.913,J,26.8,90.6,47.6,36.3,0.0,-0.8274,0.4714,0.2382,8.8287,0.0,0.0
2026-06-13T00:38:27.272,K,26.8,0.0,0.0,68.1,33.2,1.0217,0.1315,0.0191,0.0,0.0,0.0
2026-06-13T00:38:27.434,K,26.8,0.0,0.0,68.6,33.3,1.0214,0.1295,0.02,0.0,0.0,0.0
2026-06-13T00:38:27.596,K,26.7,0.0,0.0,69.2,33.3,1.0214,0.1288,0.0217,0.0,0.0,0.0
2026-06-13T00:38:27.758,K,26.7,0.0,0.0,69.6,33.4,1.0212,0.128,0.0218,0.0,0.0,0.0
2026-06-13T00:38:27.920,K,26.7,0.0,0.0,70.1,33.3,1.021,0.1269,0.0231,0.0,0.0,0.0
2026-06-13T00:38:28.082,K,26.7,0.0,0.0,70.5,33.2,1.0213,0.1275,0.0244,0.0,0.0,0.0
2026-06-13T00:38:28.244,K,26.7,0.0,0.0,71.4,33.0,1.0209,0.1269,0.0246,0.0,0.0,0.0
2026-06-13T00:38:28.406,K,26.7,0.0,0.0,72.0,33.0,1.021,0.126,0.0259,0.0,0.0,0.0
2026-06-13T00:38:28.568,K,26.6,0.0,0.0,71.7,33.1,1.0209,0.1251,0.0268,0.0,0.0,0.0
2026-06-13T00:38:28.730,K,26.5,0.0,0.0,70.9,33.1,1.021,0.1241,0.0283,0.0,0.0,0.0
2026-06-13T00:38:28.892,K,26.4,0.0,0.0,70.0,33.5,1.021,0.1242,0.0302,0.0,0.0,0.0
2026-06-13T00:38:29.054,K,26.3,0.0,0.0,69.3,33.8,1.021,0.1252,0.0311,0.0,0.0,0.0
2026-06-13T00:38:29.216,K,26.3,0.0,0.0,68.6,34.1,1.0209,0.1259,0.0319,0.0,0.0,0.0
2026-06-13T00:38:29.378,K,26.2,0.0,0.0,68.0,34.3,1.0212,0.1262,0.0321,0.0,0.0,0.0
2026-06-13T00:38:29.540,K,26.1,0.0,0.0,67.4,34.6,1.0212,0.1267,0.0323,0.0,0.0,0.0
2026-06-13T00:38:29.702,K,26.1,0.0,0.0,66.8,34.8,1.0208,0.1279,0.0325,0.0,0.0,0.0
2026-06-13T00:38:29.864,K,26.0,0.0,0.0,66.2,34.9,1.0208,0.1284,0.0327,0.0,0.0,0.0
2026-06-13T00:38:30.026,K,26.0,0.0,0.0,65.8,35.1,1.0209,0.1298,0.0332,0.0,0.0,0.0
2026-06-13T00:38:30.188,K,26.0,0.0,0.0,65.4,35.1,1.021,0.1294,0.0332,0.0,0.0,0.0
2026-06-13T00:38:30.350,K,26.1,0.0,0.0,65.1,35.0,1.0211,0.1291,0.0353,0.0,0.0,0.0
2026-06-13T00:38:30.512,K,26.1,0.0,0.0,64.5,34.9,1.0214,0.1286,0.0357,0.0,0.0,0.0
2026-06-13T00:38:30.674,K,26.1,0.0,0.0,63.6,34.9,1.0213,0.1265,0.036,0.0,0.0,0.0
2026-06-13T00:38:30.836,K,26.1,0.0,0.0,63.2,34.9,1.0215,0.1242,0.0387,0.0,0.0,0.0
2026-06-13T00:38:30.998,K,26.0,0.0,0.0,62.4,34.8,1.0213,0.1273,0.0393,0.0,0.0,0.0
2026-06-13T00:38:31.161,K,25.9,0.0,0.0,61.4,34.9,1.0214,0.1283,0.0357,0.0,0.0,0.0
2026-06-13T00:38:31.322,K,25.8,0.0,0.0,60.8,35.1,1.0207,0.1294,0.0301,0.0,0.0,0.0
2026-06-13T00:38:31.484,K,25.7,0.0,0.0,60.2,35.2,1.0199,0.133,0.0278,0.0,0.0,0.0
2026-06-13T00:38:31.646,K,25.6,0.0,0.0,59.8,35.3,1.02,0.1349,0.027,0.0,0.0,0.0
2026-06-13T00:38:31.808,K,25.5,0.0,0.0,59.3,35.3,1.0196,0.1353,0.0261,0.0,0.0,0.0
2026-06-13T00:38:31.970,K,25.4,0.0,0.0,58.8,35.3,1.0195,0.1357,0.025,0.0,0.0,0.0
2026-06-13T00:38:32.132,K,25.4,0.0,0.0,58.4,35.3,1.0193,0.1376,0.0255,0.0,0.0,0.0
2026-06-13T00:38:32.294,K,25.3,0.0,0.0,58.2,35.4,1.0195,0.1394,0.0275,0.0,0.0,0.0
2026-06-13T00:38:32.456,K,25.2,0.0,0.0,58.5,35.3,1.0189,0.1388,0.0275,0.0,0.0,0.0
2026-06-13T00:38:32.618,K,25.3,0.0,0.0,59.6,35.3,1.0185,0.1411,0.0272,0.0,0.0,0.0
2026-06-13T00:38:32.780,K,25.5,0.0,0.0,60.6,35.2,1.0185,0.142,0.0283,0.0,0.0,0.0
2026-06-13T00:38:32.942,K,25.6,0.0,0.0,61.7,35.2,1.0189,0.1425,0.0289,0.0,0.0,0.0
2026-06-13T00:38:33.104,K,25.6,0.0,0.0,61.9,35.1,1.0189,0.1426,0.0285,0.0,0.0,0.0
2026-06-13T00:38:33.266,K,25.6,0.0,0.0,62.1,35.1,1.0184,0.1419,0.0279,0.0,0.0,0.0
2026-06-13T00:38:33.428,K,25.8,0.0,0.0,62.2,35.1,1.0188,0.1422,0.0291,0.0,0.0,0.0
2026-06-13T00:38:33.590,K,25.9,0.0,0.0,62.5,35.2,1.0193,0.141,0.0303,0.0,0.0,0.0
2026-06-13T00:38:33.752,K,26.0,0.0,0.0,62.7,35.2,1.0195,0.1398,0.031,0.0,0.0,0.0
2026-06-13T00:38:33.914,K,26.1,0.0,0.0,63.1,35.3,1.0197,0.1395,0.0307,0.0,0.0,0.0
2026-06-13T00:38:34.076,K,26.2,0.0,0.0,63.1,35.3,1.02,0.1387,0.0312,0.0,0.0,0.0
2026-06-13T00:38:34.238,K,26.2,0.0,0.0,63.1,35.0,1.02,0.1392,0.0309,0.0,0.0,0.0
2026-06-13T00:38:34.400,K,26.3,0.0,0.0,62.9,34.8,1.02,0.1399,0.0323,0.0,0.0,0.0
2026-06-13T00:38:34.562,K,26.3,0.0,0.0,62.9,34.4,1.02,0.1379,0.0334,0.0,0.0,0.0
2026-06-13T00:38:34.724,K,26.3,0.0,0.0,63.0,34.1,1.0206,0.1313,0.0314,0.0,0.0,0.0
2026-06-13T00:38:34.886,K,26.3,0.0,0.0,62.7,33.8,1.0214,0.1241,0.0293,0.0,0.0,0.0
2026-06-13T00:38:35.048,K,26.4,0.0,0.0,62.7,33.5,1.0229,0.127,0.03,0.0,0.0,0.0
2026-06-13T00:38:35.210,K,26.3,0.0,0.0,62.5,33.3,1.0231,0.1261,0.0274,0.0,0.0,0.0
2026-06-13T00:38:35.372,K,26.3,0.0,0.0,62.3,33.1,1.0223,0.1233,0.0252,0.0,0.0,0.0
2026-06-13T00:38:35.534,K,26.3,0.0,0.0,62.2,32.9,1.0202,0.1178,0.0237,4.1854,0.0,0.0
2026-06-13T00:38:35.696,K,26.4,0.0,0.0,61.9,32.8,1.021,0.1228,0.0235,7.9499,0.0,0.0
2026-06-13T00:38:35.858,K,26.4,0.0,0.0,61.8,32.7,1.0218,0.1236,0.0251,10.4846,0.0,0.0
2026-06-13T00:38:36.020,K,26.4,0.0,0.0,61.6,32.7,1.0193,0.1197,0.0209,12.0444,0.0,0.0
2026-06-13T00:38:36.182,K,26.3,0.0,0.0,61.4,32.7,1.0212,0.1321,0.0276,11.8467,0.0,0.0
2026-06-13T00:38:36.344,K,26.3,0.0,0.0,60.5,32.7,1.0218,0.1263,0.0216,10.1627,0.0,0.0
2026-06-13T00:38:36.506,K,26.2,0.0,0.0,59.6,32.6,1.0209,0.1183,0.0145,8.8218,0.0,0.0
2026-06-13T00:38:36.668,K,26.0,0.0,0.0,58.9,32.6,1.0216,0.1212,0.0169,7.4609,0.0,0.0
2026-06-13T00:38:36.830,K,25.9,0.0,0.0,58.1,32.5,1.0221,0.1177,0.0163,4.9506,0.0,0.0
2026-06-13T00:38:36.992,K,25.7,0.0,0.0,57.4,32.5,1.0223,0.1148,0.0146,0.0,0.0,0.0
2026-06-13T00:38:37.154,K,25.4,0.0,0.0,57.3,32.5,1.0231,0.1095,0.0157,0.0,0.0,0.0
2026-06-13T00:38:37.316,K,25.2,0.0,0.0,57.2,32.5,1.0242,0.1054,0.0176,0.0,0.0,0.0
2026-06-13T00:39:11.499,L,0.0,0.0,48.7,66.4,84.1,0.9829,-0.0363,0.3189,0.0,0.0,0.0
2026-06-13T00:39:11.661,L,0.0,0.0,48.5,66.2,84.2,0.9784,-0.0358,0.3274,0.0,0.0,0.0
2026-06-13T00:39:11.823,L,0.0,0.0,50.0,66.1,84.4,0.975,-0.0329,0.3469,0.0,0.0,0.0
2026-06-13T00:39:11.985,L,0.0,0.0,48.8,66.0,84.5,0.97,-0.0331,0.3583,0.0,0.0,0.0
2026-06-13T00:39:12.147,L,0.0,0.0,50.6,65.9,84.6,0.9696,-0.0211,0.368,0.0,0.0,0.0
2026-06-13T00:39:12.309,L,0.0,0.0,52.4,65.8,84.8,0.968,-0.0108,0.3719,0.0,0.0,0.0
2026-06-13T00:39:12.471,L,0.0,0.0,54.2,65.7,84.9,0.9675,-0.0054,0.3706,0.0,0.0,0.0
2026-06-13T00:39:12.633,L,0.0,0.0,56.1,65.6,84.9,0.9667,-0.0021,0.3705,0.0,0.0,0.0
2026-06-13T00:39:12.795,L,0.0,0.0,58.5,65.5,84.9,0.9652,0.0,0.3769,0.0,0.0,0.0
2026-06-13T00:39:12.957,L,0.0,0.0,60.2,65.5,84.9,0.9648,-0.0011,0.3837,0.0,0.0,0.0
2026-06-13T00:39:13.119,L,0.0,0.0,61.9,65.5,85.0,0.9651,-0.0021,0.3857,0.0,0.0,0.0
2026-06-13T00:39:13.281,L,0.0,0.0,63.4,65.5,85.1,0.9634,-0.0022,0.3821,0.0,0.0,0.0
2026-06-13T00:39:13.443,L,0.0,0.0,65.0,65.5,85.2,0.9638,-0.0041,0.3867,0.0,0.0,0.0
2026-06-13T00:39:13.605,L,0.0,0.0,65.7,65.5,85.2,0.9649,-0.0036,0.3862,0.0,0.0,0.0
2026-06-13T00:39:13.767,L,0.0,0.0,65.2,65.5,85.1,0.9645,-0.0066,0.3882,0.0,0.0,0.0
2026-06-13T00:39:13.929,L,0.0,0.0,64.7,65.5,85.0,0.9645,-0.008,0.3888,0.0,0.0,0.0
2026-06-13T00:39:14.091,L,0.0,0.0,63.7,65.5,84.9,0.964,-0.0081,0.3895,0.0,0.0,0.0
2026-06-13T00:39:14.253,L,0.0,0.0,62.9,65.5,84.8,0.9648,-0.0107,0.3888,0.0,0.0,0.0
2026-06-13T00:39:14.415,L,0.0,0.0,64.2,65.6,84.7,0.9649,-0.0116,0.3897,0.0,0.0,0.0
2026-06-13T00:39:14.577,L,0.0,0.0,65.2,65.6,84.6,0.9652,-0.014,0.3885,0.0,0.0,0.0
2026-06-13T00:39:14.739,L,0.0,0.0,66.0,65.6,84.5,0.9651,-0.0148,0.3884,0.0,0.0,0.0
2026-06-13T00:39:14.901,L,0.0,0.0,66.9,65.6,84.3,0.9658,-0.0155,0.3876,0.0,0.0,0.0
2026-06-13T00:39:15.063,L,0.0,0.0,66.3,65.6,84.1,0.9653,-0.0168,0.3881,0.0,0.0,0.0
2026-06-13T00:39:15.225,L,0.0,0.0,65.8,65.6,83.9,0.9656,-0.0182,0.3876,0.0,0.0,0.0
2026-06-13T00:39:15.387,L,0.0,0.0,65.4,65.6,83.6,0.9665,-0.0199,0.385,0.0,0.0,0.0
2026-06-13T00:39:15.549,L,0.0,0.0,64.9,65.6,83.6,0.9662,-0.0214,0.3836,0.0,0.0,0.0
2026-06-13T00:39:15.711,L,0.0,0.0,63.9,65.6,83.7,0.9671,-0.021,0.3828,0.0,0.0,0.0
2026-06-13T00:39:15.873,L,0.0,0.0,62.8,65.6,83.7,0.9674,-0.0209,0.3816,0.0,0.0,0.0
2026-06-13T00:39:16.035,L,0.0,0.0,63.0,65.6,83.7,0.9669,-0.0235,0.3816,0.0,0.0,0.0
2026-06-13T00:39:16.197,L,0.0,0.0,60.3,65.7,83.6,0.9677,-0.0228,0.381,0.0,0.0,0.0
2026-06-13T00:39:16.359,L,0.0,0.0,57.4,65.8,83.5,0.9672,-0.0239,0.3806,0.0,0.0,0.0
2026-06-13T00:39:16.521,L,0.0,0.0,54.5,65.8,83.5,0.9676,-0.0267,0.3789,0.0,0.0,0.0
2026-06-13T00:39:16.683,L,0.0,0.0,51.5,65.9,83.4,0.9671,-0.0267,0.3788,0.0,0.0,0.0
2026-06-13T00:39:16.845,L,0.0,0.0,47.9,65.9,83.3,0.9672,-0.0262,0.3811,0.0,0.0,0.0
2026-06-13T00:39:17.007,L,0.0,0.0,45.1,65.9,83.2,0.9672,-0.0265,0.3817,0.0,0.0,0.0
2026-06-13T00:39:17.169,L,0.0,0.0,43.4,65.9,83.1,0.9666,-0.0254,0.382,0.0,0.0,0.0
2026-06-13T00:39:17.331,L,0.0,0.0,41.7,65.8,82.9,0.9674,-0.0241,0.3815,0.0,0.0,0.0
2026-06-13T00:39:17.493,L,0.0,0.0,40.0,65.8,82.8,0.9674,-0.0237,0.3827,0.0,0.0,0.0
2026-06-13T00:39:17.655,L,0.0,0.0,38.8,65.9,82.7,0.9674,-0.024,0.3813,0.0,0.0,0.0
2026-06-13T00:39:17.817,L,0.0,0.0,39.7,65.9,82.7,0.9679,-0.0248,0.3819,0.0,0.0,0.0
2026-06-13T00:39:17.979,L,0.0,0.0,40.5,66.0,82.7,0.9674,-0.0252,0.3806,0.0,0.0,0.0
2026-06-13T00:39:18.141,L,0.0,0.0,41.1,66.1,82.5,0.9673,-0.027,0.3806,0.0,0.0,0.0
2026-06-13T00:39:18.303,L,0.0,0.0,41.6,66.2,82.2,0.9676,-0.0273,0.3802,0.0,0.0,0.0
2026-06-13T00:39:18.465,L,2.1,0.0,39.4,66.3,82.3,0.967,-0.0292,0.3803,0.0,0.0,0.0
2026-06-13T00:39:18.627,L,2.2,0.0,37.0,66.4,82.4,0.9665,-0.0313,0.3801,0.0,0.0,0.0
2026-06-13T00:39:18.789,L,2.2,0.0,34.7,66.5,82.5,0.9667,-0.0304,0.3802,0.0,0.0,0.0
2026-06-13T00:39:18.951,L,2.5,0.0,32.3,66.6,82.7,0.9671,-0.0312,0.3808,0.0,0.0,0.0
2026-06-13T00:39:19.113,L,4.0,0.0,32.4,66.7,83.0,0.9672,-0.0304,0.3819,0.0,0.0,0.0
2026-06-13T00:39:19.275,L,4.7,0.0,32.4,66.7,83.2,0.9681,-0.0309,0.3829,0.0,0.0,0.0
2026-06-13T00:39:19.437,L,5.0,0.0,32.2,66.7,83.3,0.9676,-0.0325,0.3801,0.0,0.0,0.0
2026-06-13T00:39:19.599,L,3.3,0.0,32.3,66.6,82.9,0.9679,-0.0333,0.3798,0.0,0.0,0.0
2026-06-13T00:39:19.761,L,3.8,0.0,32.2,66.6,82.4,0.9735,-0.0231,0.3759,0.0,0.0,0.0
2026-06-13T00:39:19.923,L,2.6,0.0,30.8,66.6,82.0,0.977,-0.0183,0.3681,0.0,0.0,0.0
2026-06-13T00:39:20.085,L,0.0,0.0,30.6,66.5,81.8,0.9717,-0.0299,0.3622,0.0,0.0,0.0
2026-06-13T00:39:20.247,L,0.0,0.0,30.6,66.4,81.6,0.9753,-0.0313,0.3541,0.0,0.0,0.0
2026-06-13T00:39:20.409,L,0.0,0.0,30.7,66.4,81.4,0.9781,-0.0338,0.3472,0.0,0.0,0.0
2026-06-13T00:39:20.571,L,0.0,0.0,30.9,66.3,81.0,0.9798,-0.0353,0.3425,0.0,0.0,0.0
2026-06-13T00:39:20.733,L,0.0,0.0,31.1,66.3,80.5,0.9817,-0.0374,0.3374,0.0,0.0,0.0
2026-06-13T00:39:20.895,L,0.0,0.0,31.2,66.3,80.1,0.9824,-0.0411,0.3323,0.0,0.0,0.0
2026-06-13T00:39:21.057,L,0.0,0.0,31.6,66.3,79.8,0.9823,-0.0422,0.3298,0.0,0.0,0.0
2026-06-13T00:39:21.219,L,0.0,0.0,31.2,66.3,78.5,0.9838,-0.0448,0.3273,0.0,0.0,0.0
2026-06-13T00:39:21.381,L,0.0,0.0,31.6,66.4,78.5,0.9829,-0.0453,0.3228,0.0,0.0,0.0
2026-06-13T00:39:21.543,L,0.0,0.0,32.6,66.6,78.3,0.9859,-0.0451,0.3195,0.0,0.0,0.0
2026-06-13T00:40:20.675,M,23.6,0.0,0.0,0.0,45.4,-0.9067,0.321,0.0894,0.0,0.0,0.0
2026-06-13T00:40:20.837,M,23.6,0.0,0.0,0.0,45.5,-0.9103,0.3264,0.0885,0.0,0.0,0.0
2026-06-13T00:40:20.999,M,23.6,0.0,0.0,0.0,45.6,-0.9087,0.3251,0.0919,0.0,0.0,0.0
2026-06-13T00:40:21.161,M,23.6,0.0,0.0,0.0,45.7,-0.9059,0.321,0.091,0.0,0.0,0.0
2026-06-13T00:40:21.323,M,23.7,0.0,0.0,0.0,45.7,-0.9093,0.324,0.0883,0.0,0.0,0.0
2026-06-13T00:40:21.485,M,23.8,0.0,0.0,0.0,45.8,-0.9099,0.3276,0.0905,0.0,0.0,0.0
2026-06-13T00:40:21.647,M,23.9,0.0,0.0,0.0,45.9,-0.9076,0.3241,0.0921,0.0,0.0,0.0
2026-06-13T00:40:21.809,M,23.9,0.0,0.0,0.0,45.9,-0.9069,0.3227,0.0896,0.0,0.0,0.0
2026-06-13T00:40:21.971,M,23.9,0.0,0.0,0.0,46.0,-0.908,0.3273,0.0878,0.0,0.0,0.0
2026-06-13T00:40:22.133,M,23.9,0.0,0.0,0.0,46.2,-0.9074,0.3257,0.0879,0.0,0.0,0.0
2026-06-13T00:40:22.295,M,23.9,0.0,0.0,0.0,46.4,-0.9069,0.3262,0.0882,0.0,0.0,0.0
2026-06-13T00:40:22.457,M,23.9,0.0,0.0,0.0,46.6,-0.9075,0.328,0.0868,0.0,0.0,0.0
2026-06-13T00:40:22.619,M,24.0,0.0,0.0,0.0,46.9,-0.9085,0.3272,0.086,0.0,0.0,0.0
2026-06-13T00:40:22.781,M,24.1,0.0,0.0,0.0,47.2,-0.9079,0.3266,0.0852,0.0,0.0,0.0
2026-06-13T00:40:22.943,M,24.1,0.0,0.0,0.0,47.4,-0.9068,0.3262,0.0842,0.0,0.0,0.0
2026-06-13T00:40:23.105,M,24.1,0.0,0.0,0.0,47.5,-0.909,0.3289,0.0831,0.0,0.0,0.0
2026-06-13T00:40:23.267,M,24.1,0.0,0.0,0.0,47.4,-0.9056,0.327,0.0845,0.0,0.0,0.0
2026-06-13T00:40:23.429,M,24.1,0.0,0.0,0.0,47.3,-0.9079,0.3272,0.0867,0.0,0.0,0.0
2026-06-13T00:40:23.591,M,24.1,0.0,0.0,0.0,47.2,-0.9082,0.3276,0.087,0.0,0.0,0.0
2026-06-13T00:40:23.753,M,24.1,0.0,0.0,0.0,47.1,-0.9057,0.3273,0.0862,0.0,0.0,0.0
2026-06-13T00:40:23.915,M,24.1,0.0,0.0,0.0,47.0,-0.9069,0.3273,0.0851,0.0,0.0,0.0
2026-06-13T00:40:24.077,M,24.2,0.0,0.0,0.0,46.8,-0.9085,0.3329,0.0841,0.0,0.0,0.0
2026-06-13T00:40:24.239,M,24.2,0.0,0.0,0.0,46.7,-0.9061,0.3301,0.089,0.0,0.0,0.0
2026-06-13T00:40:24.401,M,24.2,0.0,0.0,0.0,46.6,-0.904,0.3291,0.0866,0.0,0.0,0.0
2026-06-13T00:40:24.563,M,24.2,0.0,0.0,0.0,46.5,-0.9071,0.334,0.0847,0.0,0.0,0.0
2026-06-13T00:40:24.725,M,24.3,0.0,0.0,0.0,46.5,-0.9059,0.3352,0.0888,0.0,0.0,0.0
2026-06-13T00:40:24.887,M,24.3,0.0,0.0,0.0,46.6,-0.9017,0.3294,0.0901,0.0,0.0,0.0
2026-06-13T00:40:25.049,M,24.3,0.0,0.0,0.0,46.6,-0.9055,0.3341,0.087,0.0,0.0,0.0
2026-06-13T00:40:25.211,M,24.3,0.0,0.0,0.0,46.6,-0.9069,0.3396,0.088,0.0,0.0,0.0
2026-06-13T00:40:25.373,M,24.4,0.0,0.0,0.0,46.6,-0.9041,0.3348,0.0913,0.0,0.0,0.0
2026-06-13T00:40:25.535,M,24.4,0.0,0.0,0.0,46.5,-0.902,0.3322,0.0888,0.0,0.0,0.0
2026-06-13T00:40:25.697,M,24.4,0.0,0.0,0.0,46.5,-0.9069,0.3388,0.0869,0.0,0.0,0.0
2026-06-13T00:40:25.859,M,24.4,0.0,0.0,0.0,46.5,-0.9062,0.3399,0.0907,0.0,0.0,0.0
2026-06-13T00:40:26.021,M,24.4,0.0,0.0,0.0,46.4,-0.9021,0.3361,0.0906,0.0,0.0,0.0
2026-06-13T00:40:26.183,M,24.4,0.0,0.0,0.0,46.3,-0.9031,0.3368,0.0865,0.0,0.0,0.0
2026-06-13T00:40:26.345,M,24.4,0.0,0.0,0.0,46.1,-0.9061,0.3422,0.0881,0.0,0.0,0.0
2026-06-13T00:40:26.507,M,24.3,0.0,0.0,0.0,46.0,-0.9025,0.3381,0.0923,0.0,0.0,0.0
2026-06-13T00:40:26.669,M,24.3,0.0,0.0,0.0,45.9,-0.9008,0.336,0.0894,0.0,0.0,0.0
2026-06-13T00:40:26.831,M,24.4,0.0,0.0,0.0,45.8,-0.9043,0.342,0.0858,0.0,0.0,0.0
2026-06-13T00:40:26.993,M,24.4,0.0,0.0,0.0,45.8,-0.9045,0.344,0.0882,0.0,0.0,0.0
2026-06-13T00:40:27.155,M,24.4,0.0,0.0,0.0,45.7,-0.9027,0.3403,0.0903,0.0,0.0,0.0
2026-06-13T00:40:27.317,M,24.4,0.0,0.0,0.0,45.9,-0.9024,0.34,0.0877,0.0,0.0,0.0
2026-06-13T00:40:27.479,M,24.4,0.0,0.0,0.0,46.0,-0.9023,0.3409,0.087,0.0,0.0,0.0
2026-06-13T00:40:27.641,M,24.5,0.0,0.0,0.0,46.2,-0.9026,0.342,0.0882,0.0,0.0,0.0
2026-06-13T00:40:27.803,M,24.4,0.0,0.0,0.0,46.4,-0.9035,0.3395,0.0895,0.0,0.0,0.0
2026-06-13T00:40:27.965,M,24.4,0.0,0.0,0.0,46.6,-0.9036,0.3412,0.0883,0.0,0.0,0.0
2026-06-13T00:40:28.127,M,24.5,0.0,0.0,0.0,46.8,-0.9042,0.3394,0.0881,0.0,0.0,0.0
2026-06-13T00:40:28.289,M,24.5,0.0,0.0,0.0,46.7,-0.905,0.3407,0.0874,0.0,0.0,0.0
2026-06-13T00:40:28.451,M,24.5,0.0,0.0,0.0,46.8,-0.9035,0.3392,0.088,0.0,0.0,0.0
2026-06-13T00:40:28.613,M,24.5,0.0,0.0,0.0,46.8,-0.9021,0.3387,0.0899,0.0,0.0,0.0
2026-06-13T00:40:28.775,M,24.5,0.0,0.0,0.0,46.9,-0.9029,0.3409,0.0911,0.0,0.0,0.0
2026-06-13T00:40:28.937,M,24.5,0.0,0.0,0.0,46.9,-0.9001,0.3388,0.0916,0.0,0.0,0.0
2026-06-13T00:40:29.099,M,24.5,0.0,0.0,0.0,46.9,-0.9012,0.3408,0.0917,0.0,0.0,0.0
2026-06-13T00:40:29.261,M,24.5,0.0,0.0,0.0,46.9,-0.9016,0.3401,0.0937,0.0,0.0,0.0
2026-06-13T00:40:29.423,M,24.6,0.0,0.0,0.0,47.1,-0.9014,0.3413,0.0941,0.0,0.0,0.0
2026-06-13T00:40:29.585,M,24.6,0.0,0.0,0.0,47.3,-0.9025,0.3436,0.0948,0.0,0.0,0.0
2026-06-13T00:40:29.747,M,24.6,0.0,0.0,0.0,47.5,-0.9013,0.344,0.0943,0.0,0.0,0.0
2026-06-13T00:40:29.909,M,24.6,0.0,0.0,0.0,47.6,-0.9015,0.3442,0.0951,0.0,0.0,0.0
2026-06-13T00:40:30.071,M,24.7,0.0,0.0,0.0,47.9,-0.9018,0.3447,0.0978,0.0,0.0,0.0
2026-06-13T00:40:30.233,M,24.7,0.0,0.0,0.0,48.1,-0.9014,0.3436,0.0976,0.0,0.0,0.0
2026-06-13T00:40:30.395,M,24.8,0.0,0.0,0.0,48.3,-0.9015,0.3447,0.0975,0.0,0.0,0.0
2026-06-13T00:40:30.557,M,24.8,0.0,0.0,0.0,48.5,-0.9013,0.3457,0.0967,0.0,0.0,0.0
2026-06-13T00:40:30.719,M,24.8,0.0,0.0,0.0,48.4,-0.9021,0.3468,0.0966,0.0,0.0,0.0
2026-06-13T00:41:26.124,N,19.9,0.0,0.0,66.3,72.2,-0.8164,0.4133,0.3657,0.0,0.0,0.0
2026-06-13T00:41:26.286,N,19.9,0.0,0.0,66.0,72.6,-0.8164,0.4127,0.3651,0.0,0.0,0.0
2026-06-13T00:41:26.448,N,19.9,0.0,0.0,65.8,73.1,-0.8168,0.4131,0.3647,0.0,0.0,0.0
2026-06-13T00:41:26.610,N,19.8,0.0,0.0,65.7,73.4,-0.8179,0.4135,0.3626,0.0,0.0,0.0
2026-06-13T00:41:26.772,N,19.8,0.0,0.0,65.7,73.9,-0.8171,0.4123,0.3611,0.0,0.0,0.0
2026-06-13T00:41:26.934,N,19.9,0.0,0.0,65.8,74.2,-0.8178,0.4121,0.3609,0.0,0.0,0.0
2026-06-13T00:41:27.096,N,20.1,0.0,0.0,65.7,74.5,-0.8186,0.4115,0.36,0.0,0.0,0.0
2026-06-13T00:41:27.258,N,20.5,0.0,0.0,65.5,74.6,-0.8194,0.4108,0.358,0.0,0.0,0.0
2026-06-13T00:41:27.420,N,21.2,0.0,0.0,65.4,74.8,-0.8212,0.4109,0.3572,0.0,0.0,0.0
2026-06-13T00:41:27.582,N,21.7,0.0,0.0,65.2,74.9,-0.8218,0.4102,0.3545,0.0,0.0,0.0
2026-06-13T00:41:27.744,N,22.0,0.0,0.0,65.0,75.0,-0.8226,0.4089,0.3532,0.0,0.0,0.0
2026-06-13T00:41:27.906,N,22.4,0.0,0.0,65.1,74.8,-0.8234,0.4096,0.3501,0.0,0.0,0.0
2026-06-13T00:41:28.068,N,22.8,0.0,0.0,65.2,74.7,-0.8238,0.408,0.3493,0.0,0.0,0.0
2026-06-13T00:41:28.230,N,23.2,0.0,0.0,65.1,74.5,-0.823,0.4072,0.3486,0.0,0.0,0.0
2026-06-13T00:41:28.392,N,23.4,0.0,0.0,65.2,74.2,-0.8249,0.407,0.3501,0.0,0.0,0.0
2026-06-13T00:41:28.554,N,23.6,0.0,0.0,65.3,74.3,-0.8245,0.4062,0.3497,0.0,0.0,0.0
2026-06-13T00:41:28.716,N,23.8,0.0,0.0,65.3,74.3,-0.8254,0.4063,0.3484,0.0,0.0,0.0
2026-06-13T00:41:28.878,N,23.7,0.0,0.0,65.3,74.1,-0.8258,0.4068,0.3484,0.0,0.0,0.0
2026-06-13T00:41:29.040,N,23.4,0.0,0.0,65.2,73.7,-0.8257,0.4069,0.3478,0.0,0.0,0.0
2026-06-13T00:41:29.202,N,23.3,0.0,0.0,65.2,73.4,-0.8261,0.4069,0.3481,0.0,0.0,0.0
2026-06-13T00:41:29.364,N,23.3,0.0,0.0,65.2,73.2,-0.8259,0.4076,0.3478,0.0,0.0,0.0
2026-06-13T00:41:29.526,N,23.1,0.0,0.0,65.2,72.9,-0.8257,0.4075,0.347,0.0,0.0,0.0
2026-06-13T00:41:29.688,N,22.7,0.0,0.0,65.3,72.7,-0.8258,0.4069,0.347,0.0,0.0,0.0
2026-06-13T00:41:29.850,N,22.5,0.0,0.0,65.3,72.5,-0.8257,0.4069,0.3463,0.0,0.0,0.0
2026-06-13T00:41:30.012,N,22.4,0.0,0.0,65.3,72.3,-0.8247,0.4079,0.3447,0.0,0.0,0.0
2026-06-13T00:41:30.174,N,22.4,0.0,0.0,65.4,72.2,-0.8259,0.4087,0.3444,0.0,0.0,0.0
2026-06-13T00:41:30.336,N,22.3,0.0,0.0,65.5,72.1,-0.825,0.4092,0.3442,0.0,0.0,0.0
2026-06-13T00:41:30.498,N,22.3,0.0,0.0,65.6,72.0,-0.8253,0.409,0.3438,0.0,0.0,0.0
2026-06-13T00:41:30.660,N,22.4,0.0,0.0,65.7,71.9,-0.8252,0.4097,0.3437,0.0,0.0,0.0
2026-06-13T00:41:30.822,N,22.5,0.0,0.0,65.7,71.7,-0.8251,0.4092,0.3433,0.0,0.0,0.0
2026-06-13T00:41:30.984,N,22.5,0.0,0.0,65.8,71.7,-0.8254,0.4099,0.3431,0.0,0.0,0.0
2026-06-13T00:41:31.146,N,22.4,0.0,0.0,66.0,71.6,-0.8256,0.4094,0.3421,0.0,0.0,0.0
2026-06-13T00:41:31.308,N,22.3,0.0,0.0,66.3,71.7,-0.8256,0.4077,0.3422,0.0,0.0,0.0
2026-06-13T00:41:31.470,N,22.2,0.0,0.0,66.6,71.7,-0.8294,0.4071,0.3403,0.0,0.0,0.0
2026-06-13T00:41:31.632,N,22.0,0.0,0.0,67.0,71.6,-0.8293,0.4059,0.3362,0.0,0.0,0.0
2026-06-13T00:41:31.794,N,21.5,0.0,0.0,67.4,71.5,-0.8312,0.4066,0.3327,0.0,0.0,0.0
2026-06-13T00:41:31.956,N,21.0,0.0,0.0,67.4,71.6,-0.8328,0.4039,0.3297,0.0,0.0,0.0
2026-06-13T00:41:32.118,N,20.5,0.0,0.0,67.4,71.7,-0.8349,0.4024,0.3287,0.0,0.0,0.0
2026-06-13T00:41:32.280,N,20.1,0.0,0.0,67.7,72.1,-0.8354,0.4015,0.3287,0.0,0.0,0.0
2026-06-13T00:41:32.442,N,19.6,0.0,0.0,67.8,72.4,-0.837,0.3996,0.3263,0.0,0.0,0.0
2026-06-13T00:41:32.604,N,19.1,0.0,0.0,67.8,72.3,-0.8384,0.3961,0.3228,0.0,0.0,0.0
2026-06-13T00:41:32.766,N,19.1,0.0,0.0,67.8,72.4,-0.8421,0.3938,0.3217,0.0,0.0,0.0
2026-06-13T00:41:32.928,N,19.1,0.0,0.0,68.1,72.5,-0.8424,0.3882,0.3179,0.0,0.0,0.0
2026-06-13T00:41:33.090,N,19.0,0.0,0.0,68.2,72.6,-0.8447,0.3869,0.315,0.0,0.0,0.0
2026-06-13T00:41:33.252,N,18.8,0.0,0.0,68.4,72.8,-0.8467,0.381,0.314,0.0,0.0,0.0
2026-06-13T00:41:33.414,N,18.8,0.0,0.0,68.4,73.0,-0.8503,0.3799,0.3103,0.0,0.0,0.0
2026-06-13T00:41:33.576,N,18.6,0.0,0.0,68.4,73.2,-0.8523,0.378,0.3071,0.0,0.0,0.0
2026-06-13T00:41:33.738,N,18.6,0.0,0.0,68.4,73.3,-0.8535,0.375,0.3064,0.0,0.0,0.0
2026-06-13T00:41:33.900,N,18.6,0.0,0.0,68.4,73.5,-0.8534,0.3723,0.3052,0.0,0.0,0.0
2026-06-13T00:41:34.062,N,18.7,0.0,0.0,68.3,73.5,-0.8552,0.371,0.3042,0.0,0.0,0.0
2026-06-13T00:41:34.224,N,18.9,0.0,0.0,68.3,73.6,-0.8554,0.3684,0.3022,0.0,0.0,0.0
2026-06-13T00:41:34.386,N,18.8,0.0,0.0,68.2,73.6,-0.8564,0.3683,0.3002,0.0,0.0,0.0
2026-06-13T00:41:34.549,N,18.9,0.0,0.0,68.2,73.6,-0.8575,0.3663,0.2995,0.0,0.0,0.0
2026-06-13T00:41:34.710,N,19.2,0.0,0.0,68.1,73.7,-0.8581,0.3648,0.299,0.0,0.0,0.0
2026-06-13T00:41:34.872,N,19.5,0.0,0.0,68.1,73.7,-0.8585,0.364,0.2981,0.0,0.0,0.0
2026-06-13T00:41:35.035,N,19.7,0.0,0.0,68.1,73.7,-0.859,0.3624,0.2965,0.0,0.0,0.0
2026-06-13T00:41:35.196,N,20.1,0.0,0.0,68.0,73.7,-0.8591,0.3628,0.2948,0.0,0.0,0.0
2026-06-13T00:41:35.358,N,20.4,0.0,0.0,67.9,73.8,-0.8597,0.3619,0.2932,0.0,0.0,0.0
2026-06-13T00:41:35.520,N,20.4,0.0,0.0,67.9,73.8,-0.8609,0.363,0.292,0.0,0.0,0.0
2026-06-13T00:41:35.683,N,20.5,0.0,0.0,67.8,73.8,-0.8613,0.3621,0.2914,0.0,0.0,0.0
2026-06-13T00:41:35.844,N,20.7,0.0,0.0,67.8,73.8,-0.8621,0.3617,0.2903,0.0,0.0,0.0
2026-06-13T00:41:36.007,N,20.7,0.0,0.0,67.8,73.9,-0.8618,0.3621,0.2897,0.0,0.0,0.0
2026-06-13T00:42:57.333,O,21.2,97.4,0.0,0.0,0.0,0.9615,-0.0363,0.3959,0.0,0.0,0.0
2026-06-13T00:42:57.495,O,21.3,97.0,0.0,0.0,0.0,0.96,-0.0405,0.3952,0.0,0.0,0.0
2026-06-13T00:42:57.657,O,21.5,96.4,0.0,0.0,0.0,0.9598,-0.0439,0.3965,0.0,0.0,0.0
2026-06-13T00:42:57.819,O,21.6,95.6,0.0,0.0,0.0,0.9597,-0.0444,0.3968,0.0,0.0,0.0
2026-06-13T00:42:57.981,O,21.8,94.7,0.0,0.0,0.0,0.9586,-0.0474,0.3986,0.0,0.0,0.0
2026-06-13T00:42:58.143,O,21.8,93.5,0.0,0.0,0.0,0.9579,-0.051,0.3988,0.0,0.0,0.0
2026-06-13T00:42:58.305,O,21.7,92.3,0.0,0.0,0.0,0.958,-0.052,0.3995,0.0,0.0,0.0
2026-06-13T00:42:58.467,O,21.9,91.1,0.0,0.0,0.0,0.958,-0.0539,0.4016,0.0,0.0,0.0
2026-06-13T00:42:58.629,O,21.8,89.8,0.0,0.0,0.0,0.9578,-0.0553,0.3992,0.0,0.0,0.0
2026-06-13T00:42:58.791,O,21.7,88.6,0.0,0.0,0.0,0.9585,-0.0557,0.4001,0.0,0.0,0.0
2026-06-13T00:42:58.953,O,21.7,87.4,0.0,0.0,0.0,0.9582,-0.0567,0.3999,0.0,0.0,0.0
2026-06-13T00:42:59.115,O,21.6,86.3,0.0,0.0,0.0,0.9577,-0.0588,0.3993,0.0,0.0,0.0
2026-06-13T00:42:59.277,O,21.5,86.3,0.0,0.0,0.0,0.9581,-0.0585,0.4002,0.0,0.0,0.0
2026-06-13T00:42:59.439,O,21.5,86.3,0.0,0.0,0.0,0.9581,-0.0599,0.3987,0.0,0.0,0.0
2026-06-13T00:42:59.601,O,21.6,85.7,0.0,0.0,0.0,0.9584,-0.0624,0.4004,0.0,0.0,0.0
2026-06-13T00:42:59.763,O,21.7,85.1,0.0,0.0,0.0,0.9576,-0.066,0.4014,0.0,0.0,0.0
2026-06-13T00:42:59.925,O,21.7,84.6,0.0,0.0,0.0,0.9573,-0.0697,0.3977,0.0,0.0,0.0
2026-06-13T00:43:00.087,O,21.8,84.0,0.0,0.0,0.0,0.9585,-0.0734,0.3992,0.0,0.0,0.0
2026-06-13T00:43:00.249,O,21.7,83.5,0.0,0.0,0.0,0.9592,-0.076,0.3946,0.0,0.0,0.0
2026-06-13T00:43:00.411,O,21.8,82.9,0.0,0.0,0.0,0.9585,-0.0772,0.3943,0.0,0.0,0.0
2026-06-13T00:43:00.573,O,21.8,82.3,0.0,0.0,0.0,0.9576,-0.0791,0.3949,0.0,0.0,0.0
2026-06-13T00:43:00.735,O,21.8,81.8,0.0,0.0,0.0,0.9588,-0.0793,0.3956,0.0,0.0,0.0
2026-06-13T00:43:00.897,O,21.8,81.2,0.0,0.0,0.0,0.958,-0.0831,0.3947,0.0,0.0,0.0
2026-06-13T00:43:01.059,O,21.9,80.7,0.0,0.0,0.0,0.9602,-0.0844,0.394,0.0,0.0,0.0
2026-06-13T00:43:01.221,O,21.8,80.1,0.0,0.0,0.0,0.9591,-0.0853,0.3951,0.0,0.0,0.0
2026-06-13T00:43:01.383,O,21.7,79.5,0.0,0.0,0.0,0.9581,-0.0854,0.394,0.0,0.0,0.0
2026-06-13T00:43:01.545,O,21.8,79.0,0.0,0.0,0.0,0.9598,-0.0872,0.3947,0.0,0.0,0.0
2026-06-13T00:43:01.707,O,21.8,78.4,0.0,0.0,0.0,0.9603,-0.0871,0.3912,0.0,0.0,0.0
2026-06-13T00:43:01.869,O,21.9,77.9,0.0,0.0,0.0,0.9597,-0.0856,0.3928,0.0,0.0,0.0
2026-06-13T00:43:02.031,O,21.8,77.3,0.0,0.0,0.0,0.9594,-0.0869,0.3947,0.0,0.0,0.0
2026-06-13T00:43:02.193,O,21.9,76.7,0.0,0.0,0.0,0.9596,-0.0912,0.3933,0.0,0.0,0.0
2026-06-13T00:43:02.355,O,21.9,76.2,0.0,0.0,0.0,0.9593,-0.0877,0.3892,0.0,0.0,0.0
2026-06-13T00:43:02.517,O,22.0,75.6,0.0,0.0,0.0,0.9507,-0.0883,0.3923,0.0,0.0,0.0
2026-06-13T00:43:02.679,O,22.0,75.1,0.0,0.0,0.0,0.9597,-0.0881,0.3937,0.0,0.0,0.0
2026-06-13T00:43:02.841,O,22.1,74.5,0.0,0.0,0.0,0.9576,-0.0928,0.3953,0.0,0.0,0.0
2026-06-13T00:43:03.003,O,22.1,73.9,0.0,0.0,0.0,0.9567,-0.0891,0.3973,0.0,0.0,0.0
2026-06-13T00:43:03.165,O,22.1,73.0,0.0,0.0,0.0,0.9559,-0.0868,0.3935,0.0,0.0,0.0
2026-06-13T00:43:03.327,O,22.2,72.4,0.0,0.0,0.0,0.9592,-0.0852,0.3926,0.0,0.0,0.0
2026-06-13T00:43:03.489,O,22.2,72.2,0.0,0.0,0.0,0.9584,-0.0918,0.3907,0.0,0.0,0.0
2026-06-13T00:43:03.651,O,22.3,72.0,0.0,0.0,0.0,0.9578,-0.089,0.3964,0.0,0.0,0.0
2026-06-13T00:43:03.813,O,22.3,72.0,0.0,0.0,0.0,0.9564,-0.0845,0.4024,0.0,0.0,0.0
2026-06-13T00:43:03.975,O,22.2,71.9,0.0,0.0,0.0,0.9543,-0.0834,0.4058,0.0,0.0,0.0
2026-06-13T00:43:04.137,O,22.3,71.7,0.0,0.0,0.0,0.9551,-0.0846,0.4045,0.0,0.0,0.0
2026-06-13T00:43:04.299,O,22.3,71.1,0.0,0.0,0.0,0.9549,-0.0835,0.4056,0.0,0.0,0.0
2026-06-13T00:43:04.461,O,22.3,70.1,0.0,0.0,0.0,0.9531,-0.0807,0.4118,0.0,0.0,0.0
2026-06-13T00:43:04.623,O,22.4,70.1,0.0,0.0,0.0,0.9511,-0.0804,0.4162,0.0,0.0,0.0
2026-06-13T00:43:04.785,O,22.3,70.1,0.0,0.0,0.0,0.9509,-0.0814,0.4128,0.0,0.0,0.0
2026-06-13T00:43:04.947,O,22.4,69.6,0.0,0.0,0.0,0.9534,-0.0821,0.4115,0.0,0.0,0.0
2026-06-13T00:43:05.109,O,22.4,69.0,0.0,0.0,0.0,0.9505,-0.0792,0.4168,0.0,0.0,0.0
2026-06-13T00:43:05.271,O,22.3,68.4,0.0,0.0,0.0,0.9479,-0.0763,0.4218,0.0,0.0,0.0
2026-06-13T00:43:05.433,O,22.4,67.9,0.0,0.0,0.0,0.9488,-0.0779,0.4206,0.0,0.0,0.0
2026-06-13T00:43:05.595,O,22.4,67.3,0.0,0.0,0.0,0.951,-0.0813,0.4158,0.0,0.0,0.0
2026-06-13T00:43:05.757,O,22.4,66.8,0.0,0.0,0.0,0.951,-0.08,0.4181,0.0,0.0,0.0
2026-06-13T00:43:05.919,O,22.4,66.2,0.0,0.0,0.0,0.9477,-0.0778,0.4219,0.0,0.0,0.0
2026-06-13T00:43:06.081,O,22.5,65.6,0.0,0.0,0.0,0.9457,-0.0806,0.4245,0.0,0.0,0.0
2026-06-13T00:43:06.243,O,22.4,65.1,0.0,0.0,0.0,0.9493,-0.0847,0.421,0.0,0.0,0.0
2026-06-13T00:43:06.405,O,22.4,64.5,0.0,0.0,0.0,0.9492,-0.0863,0.4189,0.0,0.0,0.0
2026-06-13T00:43:06.567,O,22.5,64.0,0.0,0.0,0.0,0.9468,-0.083,0.4231,0.0,0.0,0.0
2026-06-13T00:43:06.729,O,22.5,63.4,0.0,0.0,0.0,0.9457,-0.083,0.4261,0.0,0.0,0.0
2026-06-13T00:43:06.891,O,22.5,62.8,0.0,0.0,0.0,0.9468,-0.0864,0.4222,0.0,0.0,0.0
2026-06-13T00:43:07.053,O,22.5,62.3,0.0,0.0,0.0,0.9488,-0.0885,0.4192,0.0,0.0,0.0
2026-06-13T00:43:07.215,O,22.5,61.7,0.0,0.0,0.0,0.9473,-0.0857,0.4201,0.0,0.0,0.0
2026-06-13T00:43:07.377,O,22.6,61.2,0.0,0.0,0.0,0.9463,-0.0845,0.4246,0.0,0.0,0.0
2026-06-13T00:43:51.118,P,27.0,0.0,0.0,0.0,74.6,1.015,-0.0952,0.1725,0.0,0.0,0.0
2026-06-13T00:43:51.280,P,27.0,0.0,0.0,0.0,74.5,1.0151,-0.0904,0.1662,0.0,0.0,0.0
2026-06-13T00:43:51.442,P,27.0,0.0,0.0,0.0,74.5,1.0176,-0.0884,0.1615,0.0,0.0,0.0
2026-06-13T00:43:51.604,P,27.0,0.0,0.0,0.0,74.5,1.0177,-0.0872,0.1583,0.0,0.0,0.0
2026-06-13T00:43:51.766,P,27.0,0.0,0.0,0.0,74.8,1.0171,-0.0861,0.155,0.0,0.0,0.0
2026-06-13T00:43:51.928,P,27.0,0.0,0.0,0.0,75.0,1.0181,-0.0858,0.1516,0.0,0.0,0.0
2026-06-13T00:43:52.090,P,27.1,0.0,0.0,0.0,75.1,1.018,-0.0849,0.15,0.0,0.0,0.0
2026-06-13T00:43:52.252,P,27.1,0.0,0.0,0.0,75.2,1.0184,-0.0841,0.1501,0.0,0.0,0.0
2026-06-13T00:43:52.414,P,27.1,0.0,0.0,0.0,75.0,1.019,-0.0837,0.1479,0.0,0.0,0.0
2026-06-13T00:43:52.576,P,27.2,0.0,0.0,0.0,74.8,1.0193,-0.084,0.1465,0.0,0.0,0.0
2026-06-13T00:43:52.738,P,27.2,0.0,0.0,0.0,74.5,1.0186,-0.0831,0.1448,0.0,0.0,0.0
2026-06-13T00:43:52.900,P,27.2,0.0,0.0,0.0,74.2,1.0185,-0.0827,0.1464,0.0,0.0,0.0
2026-06-13T00:43:53.062,P,27.2,0.0,0.0,0.0,74.0,1.0197,-0.0814,0.1484,0.0,0.0,0.0
2026-06-13T00:43:53.224,P,27.2,0.0,0.0,0.0,73.5,1.0183,-0.0787,0.1553,0.0,0.0,0.0
2026-06-13T00:43:53.387,P,27.2,0.0,0.0,0.0,73.2,1.0178,-0.0754,0.1622,0.0,0.0,0.0
2026-06-13T00:43:53.549,P,27.2,0.0,0.0,0.0,72.8,1.0171,-0.0752,0.1685,0.0,0.0,0.0
2026-06-13T00:43:53.710,P,27.2,0.0,0.0,0.0,72.6,1.0168,-0.0751,0.1683,0.0,0.0,0.0
2026-06-13T00:43:53.873,P,27.2,0.0,0.0,0.0,72.2,1.0167,-0.0741,0.1649,0.0,0.0,0.0
2026-06-13T00:43:54.034,P,27.1,0.0,0.0,0.0,72.1,1.0169,-0.0726,0.1645,0.0,0.0,0.0
2026-06-13T00:43:54.196,P,27.1,0.0,0.0,0.0,71.8,1.0179,-0.0707,0.1651,0.0,0.0,0.0
2026-06-13T00:43:54.358,P,27.0,0.0,0.0,0.0,71.5,1.0188,-0.0709,0.1684,0.0,0.0,0.0
2026-06-13T00:43:54.521,P,27.0,0.0,0.0,0.0,71.2,1.0164,-0.0724,0.1734,0.0,0.0,0.0
2026-06-13T00:43:54.682,P,27.0,0.0,0.0,0.0,71.0,1.0162,-0.0654,0.1734,0.0,0.0,0.0
2026-06-13T00:43:54.844,P,26.9,0.0,0.0,0.0,71.3,1.0165,-0.0646,0.17,0.0,0.0,0.0
2026-06-13T00:43:55.007,P,26.9,0.0,0.0,0.0,71.1,1.0175,-0.0573,0.1676,0.0,0.0,0.0
2026-06-13T00:43:55.168,P,26.9,0.0,0.0,0.0,71.1,1.0176,-0.0603,0.1672,0.0,0.0,0.0
2026-06-13T00:43:55.330,P,26.8,0.0,0.0,0.0,71.2,1.0187,-0.0579,0.1657,0.0,0.0,0.0
