tiempo_pc,letra,pulgar,indice,corazon,anular,menique,ax,ay,az,gx,gy,gz
2026-06-09T13:16:57.775,A,32.6,100.0,100.0,95.5,100.0,1.0167,-0.097,0.1611,0.0,0.0,0.0
2026-06-09T13:16:57.782,A,32.6,100.0,100.0,95.5,100.0,1.0164,-0.0972,0.1617,0.0,0.0,0.0
2026-06-09T13:16:57.887,A,32.6,100.0,100.0,95.5,100.0,1.0163,-0.096,0.1614,0.0,0.0,0.0
2026-06-09T13:16:57.992,A,32.6,100.0,100.0,95.6,100.0,1.0166,-0.0966,0.1604,0.0,0.0,0.0
2026-06-09T13:16:58.097,A,32.6,100.0,100.0,95.5,100.0,1.0168,-0.0963,0.1601,0.0,0.0,0.0
2026-06-09T13:16:58.202,A,32.7,100.0,100.0,95.5,100.0,1.017,-0.0964,0.161,0.0,0.0,0.0
2026-06-09T13:16:58.307,A,32.8,100.0,100.0,95.5,100.0,1.0168,-0.0968,0.1598,0.0,0.0,0.0
2026-06-09T13:16:58.412,A,32.9,100.0,100.0,95.5,100.0,1.0169,-0.0972,0.1612,0.0,0.0,0.0
2026-06-09T13:16:58.517,A,33.1,100.0,100.0,95.5,100.0,1.0169,-0.0992,0.1613,0.0,0.0,0.0
2026-06-09T13:16:58.622,A,33.3,100.0,100.0,95.5,100.0,1.0166,-0.0988,0.1625,0.0,0.0,0.0
2026-06-09T13:16:58.727,A,33.3,100.0,100.0,95.5,100.0,1.0167,-0.0992,0.1614,0.0,0.0,0.0
2026-06-09T13:16:58.832,A,33.4,100.0,100.0,95.5,100.0,1.0167,-0.0991,0.1617,0.0,0.0,0.0
2026-06-09T13:16:58.937,A,33.4,100.0,100.0,95.5,100.0,1.017,-0.0991,0.1619,0.0,0.0,0.0
2026-06-09T13:16:59.042,A,33.4,100.0,100.0,95.5,100.0,1.0166,-0.0985,0.1617,0.0,0.0,0.0
2026-06-09T13:16:59.147,A,33.3,100.0,100.0,95.5,100.0,1.0165,-0.098,0.1622,0.0,0.0,0.0
2026-06-09T13:16:59.252,A,33.2,100.0,100.0,95.5,100.0,1.016,-0.0976,0.1621,0.0,0.0,0.0
2026-06-09T13:16:59.357,A,33.2,100.0,100.0,95.6,100.0,1.0162,-0.0975,0.1631,0.0,0.0,0.0
2026-06-09T13:16:59.462,A,33.1,100.0,100.0,95.6,100.0,1.0161,-0.0976,0.1625,0.0,0.0,0.0
2026-06-09T13:16:59.567,A,33.1,100.0,100.0,95.6,100.0,1.0162,-0.0979,0.1633,0.0,0.0,0.0
2026-06-09T13:16:59.672,A,33.0,100.0,100.0,95.6,100.0,1.0165,-0.0985,0.1624,0.0,0.0,0.0
2026-06-09T13:16:59.777,A,33.0,100.0,100.0,95.6,100.0,1.0164,-0.0983,0.163,0.0,0.0,0.0
2026-06-09T13:16:59.882,A,33.0,100.0,100.0,95.6,100.0,1.0167,-0.0979,0.1618,0.0,0.0,0.0
2026-06-09T13:16:59.987,A,33.0,100.0,100.0,95.6,100.0,1.0166,-0.0982,0.1623,0.0,0.0,0.0
2026-06-09T13:17:00.092,A,32.8,100.0,100.0,95.6,100.0,1.0169,-0.0976,0.1622,0.0,0.0,0.0
2026-06-09T13:17:00.197,A,32.6,100.0,100.0,95.6,100.0,1.017,-0.0977,0.1622,0.0,0.0,0.0
2026-06-09T13:17:00.302,A,32.3,100.0,100.0,95.6,100.0,1.0173,-0.0989,0.1622,0.0,0.0,0.0
2026-06-09T13:17:00.407,A,32.2,100.0,100.0,95.6,100.0,1.0172,-0.0999,0.1629,0.0,0.0,0.0
2026-06-09T13:17:00.512,A,32.2,100.0,100.0,95.6,100.0,1.0173,-0.1001,0.1626,0.0,0.0,0.0
2026-06-09T13:17:00.617,A,31.8,100.0,100.0,95.6,100.0,1.0175,-0.1,0.1631,0.0,0.0,0.0
2026-06-09T13:17:00.722,A,31.8,100.0,100.0,95.6,100.0,1.0174,-0.1004,0.1626,0.0,0.0,0.0
2026-06-09T13:17:00.827,A,31.8,100.0,100.0,95.6,100.0,1.0169,-0.0989,0.1628,0.0,0.0,0.0
2026-06-09T13:17:00.932,A,31.9,100.0,100.0,95.6,100.0,1.0164,-0.0978,0.1619,0.0,0.0,0.0
2026-06-09T13:17:01.037,A,31.9,100.0,100.0,95.6,100.0,1.0165,-0.0958,0.1614,0.0,0.0,0.0
2026-06-09T13:17:01.142,A,32.0,100.0,100.0,95.6,100.0,1.0166,-0.0968,0.1603,0.0,0.0,0.0
2026-06-09T13:17:01.247,A,32.1,100.0,100.0,95.6,100.0,1.0162,-0.0961,0.1599,0.0,0.0,0.0
2026-06-09T13:17:01.352,A,32.2,100.0,100.0,95.6,100.0,1.0165,-0.0961,0.1609,0.0,0.0,0.0
2026-06-09T13:17:01.457,A,32.3,100.0,100.0,95.6,100.0,1.0168,-0.0974,0.1608,0.0,0.0,0.0
2026-06-09T13:17:01.562,A,32.4,100.0,100.0,95.6,100.0,1.0174,-0.0974,0.1586,0.0,0.0,0.0
2026-06-09T13:17:01.667,A,32.5,100.0,100.0,95.6,100.0,1.018,-0.0993,0.1586,0.0,0.0,0.0
2026-06-09T13:17:01.772,A,32.6,100.0,100.0,95.6,100.0,1.0179,-0.0998,0.1583,0.0,0.0,0.0
2026-06-09T13:17:01.877,A,32.7,100.0,100.0,95.6,100.0,1.0182,-0.1013,0.1589,0.0,0.0,0.0
2026-06-09T13:17:01.982,A,32.8,100.0,100.0,95.6,100.0,1.0184,-0.1012,0.1578,0.0,0.0,0.0
2026-06-09T13:17:02.087,A,32.8,100.0,100.0,95.6,100.0,1.0186,-0.1009,0.1569,0.0,0.0,0.0
2026-06-09T13:17:02.192,A,32.9,100.0,100.0,95.6,100.0,1.0188,-0.1006,0.1564,0.0,0.0,0.0
2026-06-09T13:17:02.297,A,32.9,100.0,100.0,95.6,100.0,1.0188,-0.0993,0.1552,0.0,0.0,0.0
2026-06-09T13:17:02.402,A,33.0,100.0,100.0,95.6,100.0,1.0183,-0.0988,0.1552,0.0,0.0,0.0
2026-06-09T13:17:02.507,A,33.0,100.0,100.0,95.6,100.0,1.0181,-0.0984,0.1558,0.0,0.0,0.0
2026-06-09T13:17:02.612,A,33.1,100.0,100.0,95.6,100.0,1.0179,-0.0973,0.155,0.0,0.0,0.0
2026-06-09T13:17:02.717,A,33.1,100.0,100.0,95.6,100.0,1.0177,-0.0966,0.154,0.0,0.0,0.0
2026-06-09T13:17:02.822,A,33.2,100.0,100.0,95.7,100.0,1.0175,-0.0963,0.1538,0.0,0.0,0.0
2026-06-09T13:17:02.927,A,33.3,100.0,100.0,95.7,100.0,1.0176,-0.0963,0.1534,0.0,0.0,0.0
2026-06-09T13:17:03.032,A,33.4,100.0,100.0,95.7,100.0,1.0181,-0.0958,0.1526,0.0,0.0,0.0
2026-06-09T13:17:03.137,A,33.5,100.0,100.0,95.7,100.0,1.0179,-0.0953,0.1528,0.0,0.0,0.0
2026-06-09T13:17:03.242,A,33.5,100.0,100.0,95.7,100.0,1.0177,-0.095,0.1529,0.0,0.0,0.0
2026-06-09T13:17:03.347,A,33.6,100.0,100.0,95.7,100.0,1.0179,-0.0954,0.1512,0.0,0.0,0.0
2026-06-09T13:17:03.452,A,33.7,100.0,100.0,95.7,100.0,1.0181,-0.0958,0.1521,0.0,0.0,0.0
2026-06-09T13:17:03.557,A,33.8,100.0,100.0,95.7,100.0,1.0181,-0.0957,0.1516,0.0,0.0,0.0
2026-06-09T13:17:03.662,A,33.9,100.0,100.0,95.7,100.0,1.0183,-0.0944,0.1512,0.0,0.0,0.0
2026-06-09T13:17:03.767,A,34.0,100.0,100.0,95.7,100.0,1.0184,-0.0942,0.1498,0.0,0.0,0.0
2026-06-09T13:17:03.872,A,34.1,100.0,100.0,95.7,100.0,1.0185,-0.0945,0.1497,0.0,0.0,0.0
2026-06-09T13:17:03.977,A,34.2,100.0,100.0,95.7,100.0,1.0184,-0.0943,0.1514,0.0,0.0,0.0
2026-06-09T13:17:04.082,A,34.3,100.0,100.0,95.7,100.0,1.0183,-0.0953,0.1514,0.0,0.0,0.0
2026-06-09T13:17:04.187,A,34.4,100.0,100.0,95.7,100.0,1.018,-0.0943,0.1507,0.0,0.0,0.0
2026-06-09T13:17:04.292,A,34.4,100.0,100.0,95.7,100.0,1.0182,-0.0939,0.1504,0.0,0.0,0.0
2026-06-09T13:17:04.397,A,34.5,100.0,100.0,95.7,100.0,1.0186,-0.0943,0.1502,0.0,0.0,0.0
2026-06-09T13:17:04.502,A,34.6,100.0,100.0,95.7,100.0,1.0189,-0.0952,0.1509,0.0,0.0,0.0
2026-06-09T13:17:04.607,A,34.7,100.0,100.0,95.7,100.0,1.0192,-0.0947,0.1496,0.0,0.0,0.0
2026-06-09T13:17:04.712,A,34.7,100.0,100.0,95.7,100.0,1.0185,-0.0945,0.1499,0.0,0.0,0.0
2026-06-09T13:17:04.817,A,34.8,100.0,100.0,95.7,100.0,1.0176,-0.0951,0.1503,0.0,0.0,0.0
2026-06-09T13:17:04.922,A,34.8,100.0,100.0,95.7,100.0,1.0174,-0.0946,0.1507,0.0,0.0,0.0
2026-06-09T13:17:05.027,A,34.8,100.0,100.0,95.7,100.0,1.018,-0.0938,0.1503,0.0,0.0,0.0
2026-06-09T13:17:05.132,A,34.7,100.0,100.0,95.7,100.0,1.0182,-0.0938,0.1497,0.0,0.0,0.0
2026-06-09T13:17:05.237,A,34.7,100.0,100.0,95.7,100.0,1.0188,-0.0942,0.1497,0.0,0.0,0.0
2026-06-09T13:17:05.342,A,34.6,100.0,100.0,95.7,100.0,1.0184,-0.0939,0.1489,0.0,0.0,0.0
2026-06-09T13:17:05.447,A,34.5,100.0,100.0,95.7,100.0,1.0183,-0.0938,0.1495,0.0,0.0,0.0
2026-06-09T13:17:05.552,A,34.5,100.0,100.0,95.7,100.0,1.0181,-0.0945,0.1487,0.0,0.0,0.0
2026-06-09T13:17:05.657,A,34.4,100.0,100.0,95.7,100.0,1.0183,-0.095,0.1497,0.0,0.0,0.0
2026-06-09T13:17:05.762,A,34.4,100.0,100.0,95.7,100.0,1.0181,-0.0944,0.1491,0.0,0.0,0.0
2026-06-09T13:17:05.867,A,34.4,100.0,100.0,95.7,100.0,1.0182,-0.0948,0.15,0.0,0.0,0.0
2026-06-09T13:17:05.972,A,34.4,100.0,100.0,95.7,100.0,1.018,-0.0954,0.149,0.0,0.0,0.0
2026-06-09T13:17:06.077,A,34.4,100.0,100.0,95.7,100.0,1.018,-0.0956,0.1497,0.0,0.0,0.0
2026-06-09T13:17:06.182,A,34.4,100.0,100.0,95.7,100.0,1.0181,-0.0955,0.1496,0.0,0.0,0.0
2026-06-09T13:17:06.287,A,34.4,100.0,100.0,95.7,100.0,1.0181,-0.0961,0.15,0.0,0.0,0.0
2026-06-09T13:17:06.392,A,34.4,100.0,100.0,95.7,100.0,1.018,-0.0953,0.1493,0.0,0.0,0.0
2026-06-09T13:17:06.497,A,34.3,100.0,100.0,95.7,100.0,1.0178,-0.0959,0.1496,0.0,0.0,0.0
2026-06-09T13:17:06.602,A,34.3,100.0,100.0,95.7,100.0,1.0174,-0.0947,0.1492,0.0,0.0,0.0
2026-06-09T13:17:06.707,A,34.3,100.0,100.0,95.7,100.0,1.0174,-0.0947,0.1489,0.0,0.0,0.0
2026-06-09T13:17:06.812,A,34.3,100.0,100.0,95.7,100.0,1.0177,-0.0948,0.1483,0.0,0.0,0.0
2026-06-09T13:17:06.917,A,34.2,100.0,100.0,95.7,100.0,1.0181,-0.0953,0.1476,0.0,0.0,0.0
2026-06-09T13:17:07.022,A,34.2,100.0,100.0,95.7,100.0,1.0181,-0.0948,0.148,0.0,0.0,0.0
2026-06-09T13:17:07.127,A,34.2,100.0,100.0,95.7,100.0,1.0184,-0.0954,0.1472,0.0,0.0,0.0
2026-06-09T13:17:07.232,A,34.1,100.0,100.0,95.7,100.0,1.0185,-0.0947,0.1471,0.0,0.0,0.0
2026-06-09T13:17:07.337,A,34.1,100.0,100.0,95.7,100.0,1.0186,-0.0946,0.1463,0.0,0.0,0.0
2026-06-09T13:17:07.442,A,34.0,100.0,100.0,95.7,100.0,1.0189,-0.0945,0.1465,0.0,0.0,0.0
2026-06-09T13:17:07.546,A,34.0,100.0,100.0,95.8,100.0,1.019,-0.0945,0.1466,0.0,0.0,0.0
2026-06-09T13:17:07.651,A,34.0,100.0,100.0,95.8,100.0,1.019,-0.094,0.1461,0.0,0.0,0.0
2026-06-09T13:17:07.757,A,33.9,100.0,100.0,95.8,100.0,1.0193,-0.0936,0.1464,0.0,0.0,0.0
2026-06-09T13:17:07.862,A,33.9,100.0,100.0,95.8,100.0,1.0193,-0.0936,0.1463,0.0,0.0,0.02026-06-09T13:45:31.917,B,44.4,0.0,0.0,0.0,0.0,0.1195,0.9955,-0.0057,0.0,0.0,0.0
2026-06-09T13:45:32.022,B,44.1,0.0,0.0,0.0,0.0,0.1323,0.9912,-0.0207,0.0,0.0,0.0
2026-06-09T13:45:32.127,B,43.8,0.0,0.0,0.0,0.0,0.1384,0.9919,-0.0278,0.0,0.0,0.0
2026-06-09T13:45:32.232,B,43.5,0.0,0.0,0.0,0.0,0.147,0.9937,-0.027,0.0,0.0,0.0
2026-06-09T13:45:32.337,B,43.3,0.0,0.0,0.0,0.0,0.1529,0.9864,-0.0208,0.0,0.0,0.0
2026-06-09T13:45:32.442,B,42.9,0.0,0.0,0.0,0.0,0.1624,0.9827,-0.0248,0.0,0.0,0.0
2026-06-09T13:45:32.547,B,42.5,0.0,0.0,0.0,0.0,0.1777,0.9769,-0.0333,0.0,0.0,0.0
2026-06-09T13:45:32.652,B,42.2,0.0,0.0,0.0,0.0,0.1784,0.9801,-0.0365,0.0,0.0,0.0
2026-06-09T13:45:32.757,B,42.1,0.0,0.0,0.0,0.0,0.1767,0.9845,-0.0398,0.0,0.0,0.0
2026-06-09T13:45:32.862,B,42.0,0.0,0.0,0.0,0.0,0.1786,0.9868,-0.039,0.0,0.0,0.0
2026-06-09T13:45:32.967,B,41.9,0.0,0.0,0.0,0.0,0.1774,0.9842,-0.035,0.0,0.0,0.0
2026-06-09T13:45:33.072,B,41.7,0.0,0.0,0.0,0.0,0.1765,0.9863,-0.0348,0.0,0.0,0.0
2026-06-09T13:45:33.177,B,41.5,0.0,0.0,0.0,0.0,0.1774,0.9869,-0.0358,0.0,0.0,0.0
2026-06-09T13:45:33.282,B,41.4,0.0,0.0,0.0,0.0,0.1743,0.9867,-0.0339,0.0,0.0,0.0
2026-06-09T13:45:33.387,B,41.5,0.0,0.0,0.0,0.0,0.1722,0.9875,-0.038,0.0,0.0,0.0
2026-06-09T13:45:33.492,B,41.6,0.0,0.0,0.0,0.0,0.169,0.9876,-0.0348,0.0,0.0,0.0
2026-06-09T13:45:33.597,B,41.6,0.0,0.0,0.0,0.0,0.1674,0.9876,-0.0347,0.0,0.0,0.0
2026-06-09T13:45:33.702,B,41.6,0.0,0.0,0.0,0.0,0.1678,0.9874,-0.0353,0.0,0.0,0.0
2026-06-09T13:45:33.807,B,41.6,0.0,0.0,0.0,0.0,0.1678,0.9887,-0.0326,0.0,0.0,0.0
2026-06-09T13:45:33.912,B,41.6,0.0,0.0,0.0,0.0,0.1683,0.988,-0.0323,0.0,0.0,0.0
2026-06-09T13:45:34.017,B,41.6,0.0,0.0,0.0,0.0,0.1684,0.989,-0.032,0.0,0.0,0.0
2026-06-09T13:45:34.122,B,41.5,0.0,0.0,0.0,0.0,0.1678,0.9905,-0.0325,0.0,0.0,0.0
2026-06-09T13:45:34.227,B,41.6,0.0,0.0,0.0,0.0,0.1683,0.9888,-0.0329,0.0,0.0,0.0
2026-06-09T13:45:34.332,B,41.8,0.0,0.0,0.0,0.0,0.168,0.9889,-0.0315,0.0,0.0,0.0
2026-06-09T13:45:34.437,B,42.0,0.0,0.0,0.0,0.0,0.1679,0.989,-0.033,0.0,0.0,0.0
2026-06-09T13:45:34.542,B,42.2,0.0,0.0,0.0,0.0,0.1675,0.9893,-0.0331,0.0,0.0,0.0
2026-06-09T13:45:34.647,B,42.2,0.0,0.0,0.0,0.0,0.1676,0.9894,-0.0327,0.0,0.0,0.0
2026-06-09T13:45:34.752,B,42.2,0.0,0.0,0.0,0.0,0.169,0.9874,-0.0347,0.0,0.0,0.0
2026-06-09T13:45:34.857,B,42.1,0.0,0.0,0.0,0.0,0.169,0.9878,-0.0349,0.0,0.0,0.0
2026-06-09T13:45:34.962,B,41.9,0.0,0.0,0.0,0.0,0.1702,0.9859,-0.0328,0.0,0.0,0.0
2026-06-09T13:45:35.067,B,41.8,0.0,0.0,0.0,0.0,0.1689,0.9825,-0.0359,0.0,0.0,0.0
2026-06-09T13:45:35.172,B,41.7,0.0,0.0,0.0,0.0,0.1669,0.9827,-0.0385,0.0,0.0,0.0
2026-06-09T13:45:35.277,B,41.6,0.0,0.0,0.0,0.0,0.1733,0.9796,-0.0452,0.0,0.0,0.0
2026-06-09T13:45:35.382,B,41.7,0.0,0.0,0.0,0.0,0.1615,0.9794,-0.0664,0.0,0.0,-4.3552
2026-06-09T13:45:35.488,B,41.8,0.0,0.0,0.0,0.0,0.1431,0.9799,-0.0775,0.0,0.0,-6.2299
2026-06-09T13:45:35.592,B,41.8,0.0,0.0,0.0,0.0,0.1246,0.9763,-0.0749,0.0,0.0,-8.0828
2026-06-09T13:45:35.697,B,41.5,0.0,0.0,0.0,0.0,0.1018,0.9783,-0.0702,0.0,0.0,-8.2091
2026-06-09T13:45:35.802,B,41.5,0.0,0.0,0.0,0.0,0.0816,0.9788,-0.0868,0.0,0.0,-9.1053
2026-06-09T13:45:35.907,B,41.5,0.0,0.0,0.0,0.0,0.0646,0.9853,-0.0976,0.0,0.0,-9.5058
2026-06-09T13:45:36.012,B,41.5,0.0,0.0,0.0,0.0,0.0515,0.9827,-0.1016,0.0,0.0,-9.1944
2026-06-09T13:45:36.117,B,41.6,0.0,0.0,0.0,0.0,0.0399,0.9828,-0.1069,0.0,0.0,-9.0279
2026-06-09T13:45:36.222,B,41.7,0.0,0.0,0.0,0.0,0.03,0.9856,-0.1087,0.0,0.0,-8.7361
2026-06-09T13:45:36.327,B,41.8,0.0,0.0,0.0,0.0,0.0247,0.9846,-0.109,0.0,0.0,-8.6727
2026-06-09T13:45:36.432,B,41.7,0.0,0.0,0.0,0.0,0.0173,0.9885,-0.1096,0.0,0.0,-8.8103
2026-06-09T13:45:36.537,B,41.8,0.0,0.0,0.0,0.0,0.0112,0.9883,-0.1099,0.0,0.0,-8.5563
2026-06-09T13:45:36.642,B,42.0,0.0,0.0,0.0,0.0,0.0078,0.9859,-0.1083,0.0,0.0,-8.207
2026-06-09T13:45:36.747,B,42.2,0.0,0.0,0.0,0.0,0.0043,0.9865,-0.1063,0.0,0.0,-8.1561
2026-06-09T13:45:36.852,B,42.3,0.0,0.0,0.0,0.0,0.0004,0.9879,-0.1062,0.0,0.0,-8.1133
2026-06-09T13:45:36.957,B,42.4,0.0,0.0,0.0,0.0,-0.0024,0.9873,-0.1057,0.0,0.0,-8.0015
2026-06-09T13:45:37.062,B,42.6,0.0,0.0,0.0,0.0,-0.0044,0.986,-0.1037,0.0,0.0,-8.0405
2026-06-09T13:45:37.167,B,42.7,0.0,0.0,0.0,0.0,-0.0074,0.9881,-0.1017,0.0,0.0,-8.1917
2026-06-09T13:45:37.272,B,42.9,0.0,0.0,0.0,0.0,-0.0101,0.9886,-0.1001,0.0,0.0,-7.9537
2026-06-09T13:45:37.377,B,43.0,0.0,0.0,0.0,0.0,-0.012,0.9863,-0.1,0.0,0.0,-7.9724
2026-06-09T13:45:37.482,B,43.2,0.0,0.0,0.0,0.0,-0.0137,0.988,-0.0986,0.0,0.0,-7.8861
2026-06-09T13:45:37.587,B,43.4,0.0,0.0,0.0,0.0,-0.0144,0.9885,-0.0981,0.0,0.0,-7.6703
2026-06-09T13:45:37.692,B,43.5,0.0,0.0,0.0,0.0,-0.0147,0.9895,-0.0974,0.0,0.0,-7.3776
2026-06-09T13:45:37.797,B,43.6,0.0,0.0,0.0,0.0,-0.0146,0.9866,-0.0958,0.0,0.0,-7.0432
2026-06-09T13:45:37.902,B,43.7,0.0,0.0,0.0,0.0,-0.014,0.9882,-0.0924,0.0,0.0,-6.8308
2026-06-09T13:45:38.007,B,43.9,0.0,0.0,0.0,0.0,-0.0127,0.9892,-0.0895,0.0,0.0,-6.8991
2026-06-09T13:45:38.112,B,44.1,0.0,0.0,0.0,0.0,-0.0104,0.9897,-0.0867,0.0,0.0,-6.8728
2026-06-09T13:45:38.217,B,44.2,0.0,0.0,0.0,0.0,-0.0088,0.9884,-0.0855,0.0,0.0,-6.853
2026-06-09T13:45:38.322,B,44.4,0.0,0.0,0.0,0.0,-0.0071,0.9884,-0.0842,0.0,0.0,-7.039
2026-06-09T13:45:38.427,B,44.4,0.0,0.0,0.0,0.0,-0.0061,0.9895,-0.0845,0.0,0.0,-7.0911
2026-06-09T13:45:38.532,B,44.4,0.0,0.0,0.0,0.0,-0.005,0.9904,-0.0826,0.0,0.0,-7.1281
2026-06-09T13:45:38.637,B,44.4,0.0,0.0,0.0,0.0,-0.0037,0.9906,-0.0807,0.0,0.0,-7.2247
2026-06-09T13:45:38.742,B,44.4,0.0,0.0,0.0,0.0,-0.0024,0.9908,-0.0813,0.0,0.0,-7.2476
2026-06-09T13:45:38.847,B,44.5,0.0,0.0,0.0,0.0,-0.0013,0.9921,-0.0802,0.0,0.0,-7.191
2026-06-09T13:45:38.952,B,44.5,0.0,0.0,0.0,0.0,-0.0016,0.9927,-0.0801,0.0,0.0,-7.0905
2026-06-09T13:45:39.057,B,44.4,0.0,0.0,0.0,0.0,-0.0013,0.9952,-0.0789,0.0,0.0,-6.8573
2026-06-09T13:45:39.162,B,44.3,0.0,0.0,0.0,0.0,0.0016,0.9946,-0.0799,0.0,0.0,-6.7093
2026-06-09T13:45:39.267,B,44.2,0.0,0.0,0.0,0.0,0.0036,0.9934,-0.0818,0.0,0.0,-6.9814
2026-06-09T13:45:39.372,B,43.8,0.0,0.0,0.0,0.0,0.0043,0.9922,-0.0804,0.0,0.0,-6.979
2026-06-09T13:45:39.477,B,42.9,0.0,0.0,0.0,0.0,0.0047,0.989,-0.0809,0.0,0.0,-7.0852
2026-06-09T13:45:39.582,B,41.7,0.0,0.0,0.0,0.0,0.0054,0.9875,-0.0809,0.0,0.0,-7.1227
2026-06-09T13:45:39.687,B,40.8,0.0,0.0,0.0,0.0,0.0049,0.9884,-0.0826,0.0,0.0,-7.0115
2026-06-09T13:45:39.792,B,39.9,0.0,0.0,0.0,0.0,0.0041,0.9888,-0.0805,0.0,0.0,-7.0343
2026-06-09T13:45:39.897,B,38.7,0.0,0.0,0.0,0.0,0.0058,0.9874,-0.0766,0.0,0.0,-6.9571
2026-06-09T13:45:40.002,B,37.7,0.0,0.0,0.0,0.0,0.0059,0.9869,-0.0741,0.0,0.0,-7.1029
2026-06-09T13:45:40.107,B,36.8,0.0,0.0,0.0,0.0,0.0063,0.9886,-0.0737,0.0,0.0,-7.0448
2026-06-09T13:45:40.212,B,36.3,0.0,0.0,0.0,0.0,0.006,0.9905,-0.0712,0.0,0.0,-6.804
2026-06-09T13:45:40.317,B,36.4,0.0,0.0,0.0,0.0,0.0069,0.9904,-0.0697,0.0,0.0,-6.4406
2026-06-09T13:45:40.422,B,36.7,0.0,0.0,0.0,0.0,0.009,0.9911,-0.069,0.0,0.0,-6.1266
2026-06-09T13:45:40.527,B,37.2,0.0,0.0,0.0,0.0,0.0113,0.9932,-0.0649,0.0,0.0,-5.9921
2026-06-09T13:45:40.632,B,38.0,0.0,0.0,0.0,0.0,0.0159,0.9932,-0.057,0.0,0.0,-5.884
2026-06-09T13:45:40.737,B,38.7,0.0,0.0,0.0,0.0,0.0195,0.9929,-0.0559,0.0,0.0,-5.941
2026-06-09T13:45:40.842,B,39.4,0.0,0.0,0.0,0.0,0.0248,0.9939,-0.0541,0.0,0.0,-6.051
2026-06-09T13:45:40.947,B,40.0,0.0,0.0,0.0,0.0,0.0283,0.9943,-0.0504,0.0,0.0,-6.2003
2026-06-09T13:45:41.052,B,40.5,0.0,0.0,0.0,0.0,0.0317,0.9954,-0.049,0.0,0.0,-6.2722
2026-06-09T13:45:41.157,B,40.9,0.0,0.0,0.0,0.0,0.0343,0.9946,-0.048,0.0,0.0,-6.3964
2026-06-09T13:45:41.262,B,41.2,0.0,0.0,0.0,0.0,0.0367,0.9941,-0.0465,0.0,0.0,-6.4693
2026-06-09T13:45:41.367,B,41.5,0.0,0.0,0.0,0.0,0.0386,0.9939,-0.0451,0.0,0.0,-6.6257
2026-06-09T13:45:41.472,B,41.7,0.0,0.0,0.0,0.0,0.0402,0.9943,-0.0442,0.0,0.0,-6.697
2026-06-09T13:45:41.577,B,42.0,0.0,0.0,0.0,0.0,0.0415,0.9944,-0.0433,0.0,0.0,-6.7932
2026-06-09T13:45:41.682,B,42.2,0.0,0.0,0.0,0.0,0.042,0.9947,-0.0428,0.0,0.0,-6.9584
2026-06-09T13:45:41.788,B,42.4,0.0,0.0,0.0,0.0,0.0424,0.9951,-0.0424,0.0,0.0,-7.0385
2026-06-09T13:45:41.892,B,42.6,0.0,0.0,0.0,0.0,0.0432,0.9957,-0.0433,0.0,0.0,-7.2341
2026-06-09T13:45:41.997,B,42.8,0.0,0.0,0.0,0.0,0.0438,0.9961,-0.0424,0.0,0.0,-7.3072
2026-06-09T13:47:41.958,C,40.8,94.1,68.5,67.5,53.8,1.0764,-0.1215,-0.1393,0.0,0.0,0.0
2026-06-09T13:47:42.063,C,40.9,94.2,68.5,67.4,54.5,1.0764,-0.1213,-0.1398,0.0,0.0,0.0
2026-06-09T13:47:42.168,C,40.9,94.2,68.4,67.4,55.2,1.0757,-0.1219,-0.1387,0.0,0.0,0.0
2026-06-09T13:47:42.273,C,40.9,94.2,68.4,67.4,55.9,1.076,-0.1209,-0.1398,0.0,0.0,0.0
2026-06-09T13:47:42.378,C,41.0,94.3,68.4,67.4,56.5,1.0757,-0.1212,-0.1389,0.0,0.0,0.0
2026-06-09T13:47:42.483,C,41.0,94.3,68.4,67.3,57.2,1.0765,-0.1203,-0.1405,0.0,0.0,0.0
2026-06-09T13:47:42.588,C,41.0,94.3,68.4,67.3,58.2,1.076,-0.1196,-0.1393,0.0,0.0,0.0
2026-06-09T13:47:42.693,C,41.0,94.3,68.4,67.3,59.2,1.0763,-0.1196,-0.1404,0.0,0.0,0.0
2026-06-09T13:47:42.798,C,41.0,94.2,68.4,67.3,60.2,1.0763,-0.1191,-0.1395,0.0,0.0,0.0
2026-06-09T13:47:42.903,C,41.0,94.2,68.4,67.3,60.9,1.0762,-0.1191,-0.1399,0.0,0.0,0.0
2026-06-09T13:47:43.008,C,41.0,94.2,68.3,67.3,61.5,1.0764,-0.1188,-0.1401,0.0,0.0,0.0
2026-06-09T13:47:43.113,C,41.1,94.2,68.3,67.3,62.1,1.0766,-0.1185,-0.1405,0.0,0.0,0.0
2026-06-09T13:47:43.218,C,41.1,94.1,68.3,67.3,62.8,1.0766,-0.1192,-0.1408,0.0,0.0,0.0
2026-06-09T13:47:43.323,C,41.1,93.9,68.3,67.3,63.5,1.0763,-0.1188,-0.1401,0.0,0.0,0.0
2026-06-09T13:47:43.428,C,41.1,93.8,68.3,67.3,64.4,1.0766,-0.1183,-0.1409,0.0,0.0,0.0
2026-06-09T13:47:43.533,C,41.1,93.7,68.3,67.3,65.4,1.0766,-0.1172,-0.141,0.0,0.0,0.0
2026-06-09T13:47:43.638,C,41.1,93.6,68.3,67.4,66.5,1.0765,-0.118,-0.1408,0.0,0.0,0.0
2026-06-09T13:47:43.743,C,41.1,93.5,68.3,67.4,67.2,1.0764,-0.1178,-0.1403,0.0,0.0,0.0
2026-06-09T13:47:43.848,C,41.1,93.5,68.3,67.5,67.6,1.0762,-0.1183,-0.1399,0.0,0.0,0.0
2026-06-09T13:47:43.953,C,41.1,93.4,68.3,67.5,67.7,1.0761,-0.1183,-0.1396,0.0,0.0,0.0
2026-06-09T13:47:44.058,C,41.1,93.3,68.3,67.5,67.5,1.0764,-0.1179,-0.1408,0.0,0.0,0.0
2026-06-09T13:47:44.163,C,41.0,93.2,68.3,67.6,67.0,1.0761,-0.1177,-0.1399,0.0,0.0,0.0
2026-06-09T13:47:44.268,C,41.0,93.2,68.3,67.6,66.3,1.0759,-0.1187,-0.1397,0.0,0.0,0.0
2026-06-09T13:47:44.373,C,41.0,93.1,68.3,67.7,65.9,1.0762,-0.1184,-0.1391,0.0,0.0,0.0
2026-06-09T13:47:44.478,C,41.0,93.1,68.3,67.7,65.6,1.0763,-0.1187,-0.1397,0.0,0.0,0.0
2026-06-09T13:47:44.583,C,41.0,93.1,68.3,67.8,65.2,1.0765,-0.1184,-0.1389,0.0,0.0,0.0
2026-06-09T13:47:44.688,C,41.0,93.1,68.3,67.8,64.8,1.0768,-0.118,-0.1394,0.0,0.0,0.0
2026-06-09T13:47:44.793,C,41.0,93.1,68.3,67.9,64.4,1.0767,-0.1187,-0.139,0.0,0.0,0.0
2026-06-09T13:47:44.898,C,41.0,93.0,68.3,68.0,64.0,1.0773,-0.1184,-0.1402,0.0,0.0,0.0
2026-06-09T13:47:45.003,C,41.0,93.0,68.3,68.0,63.3,1.0767,-0.1183,-0.1391,0.0,0.0,0.0
2026-06-09T13:47:45.108,C,41.0,93.0,68.3,68.0,62.5,1.0771,-0.1182,-0.1398,0.0,0.0,0.0
2026-06-09T13:47:45.213,C,41.0,92.9,68.3,68.0,61.9,1.0765,-0.1185,-0.1391,0.0,0.0,0.0
2026-06-09T13:47:45.318,C,41.0,92.8,68.3,67.9,61.6,1.0768,-0.1182,-0.1394,0.0,0.0,0.0
2026-06-09T13:47:45.423,C,41.0,92.6,68.3,67.8,61.6,1.0771,-0.1181,-0.139,0.0,0.0,0.0
2026-06-09T13:47:45.528,C,41.0,92.5,68.2,67.7,61.6,1.0771,-0.1174,-0.1395,0.0,0.0,0.0
2026-06-09T13:47:45.633,C,41.0,92.3,68.2,67.6,61.6,1.0768,-0.1181,-0.1394,0.0,0.0,0.0
2026-06-09T13:47:45.738,C,41.0,92.1,68.2,67.5,61.8,1.0771,-0.117,-0.1394,0.0,0.0,0.0
2026-06-09T13:47:45.843,C,40.9,91.9,68.2,67.4,61.9,1.077,-0.1176,-0.1398,0.0,0.0,0.0
2026-06-09T13:47:45.948,C,40.9,91.8,68.2,67.3,62.1,1.0771,-0.1163,-0.14,0.0,0.0,0.0
2026-06-09T13:47:46.053,C,40.9,91.7,68.2,67.2,62.4,1.0769,-0.1165,-0.1406,0.0,0.0,0.0
2026-06-09T13:47:46.158,C,40.9,91.7,68.3,67.2,62.7,1.0764,-0.1159,-0.1397,0.0,0.0,0.0
2026-06-09T13:47:46.263,C,40.8,91.7,68.3,67.1,63.0,1.0765,-0.1161,-0.1398,0.0,0.0,0.0
2026-06-09T13:47:46.368,C,40.7,91.7,68.3,67.0,63.3,1.0764,-0.1154,-0.1399,0.0,0.0,0.0
2026-06-09T13:47:46.473,C,40.6,91.7,68.4,67.0,63.7,1.0757,-0.1157,-0.1395,0.0,0.0,0.0
2026-06-09T13:47:46.578,C,40.5,91.7,68.4,66.9,64.1,1.0759,-0.1164,-0.1396,0.0,0.0,0.0
2026-06-09T13:47:46.683,C,40.4,91.7,68.5,66.9,64.6,1.0759,-0.1162,-0.1386,0.0,0.0,0.0
2026-06-09T13:47:46.788,C,40.3,91.7,68.5,66.9,65.0,1.076,-0.1169,-0.1384,0.0,0.0,0.0
2026-06-09T13:47:46.893,C,40.3,91.7,68.6,66.9,65.5,1.0761,-0.1164,-0.1382,0.0,0.0,0.0
2026-06-09T13:47:46.998,C,40.2,91.7,68.6,66.8,65.9,1.076,-0.1173,-0.1385,0.0,0.0,0.0
2026-06-09T13:47:47.103,C,40.1,91.8,68.7,66.8,66.3,1.0758,-0.1172,-0.1384,0.0,0.0,0.0
2026-06-09T13:47:47.208,C,40.0,91.8,68.7,66.8,66.7,1.0757,-0.1183,-0.1383,0.0,0.0,0.0
2026-06-09T13:47:47.313,C,39.9,91.8,68.7,66.8,67.1,1.0755,-0.1173,-0.1375,0.0,0.0,0.0
2026-06-09T13:47:47.418,C,39.9,91.8,68.7,66.8,67.5,1.0754,-0.1182,-0.1372,0.0,0.0,0.0
2026-06-09T13:47:47.523,C,39.8,91.8,68.8,66.8,67.8,1.0754,-0.1169,-0.1373,0.0,0.0,0.0
2026-06-09T13:47:47.628,C,39.8,91.8,68.8,66.9,68.1,1.076,-0.1169,-0.1385,0.0,0.0,0.0
2026-06-09T13:47:47.733,C,39.7,91.8,68.8,66.9,68.4,1.0759,-0.1169,-0.1385,0.0,0.0,0.0
2026-06-09T13:47:47.838,C,39.7,91.9,68.9,66.9,68.7,1.076,-0.1164,-0.139,0.0,0.0,0.0
2026-06-09T13:47:47.943,C,39.6,91.9,68.9,66.9,68.9,1.0761,-0.1161,-0.1391,0.0,0.0,0.0
2026-06-09T13:47:48.048,C,39.6,91.9,68.9,66.9,69.1,1.0761,-0.1161,-0.1395,0.0,0.0,0.0
2026-06-09T13:47:48.153,C,39.5,92.0,69.0,67.0,69.3,1.0763,-0.1158,-0.1395,0.0,0.0,0.0
2026-06-09T13:47:48.258,C,39.5,92.0,69.0,67.0,69.4,1.0765,-0.1157,-0.1394,0.0,0.0,0.0
2026-06-09T13:47:48.363,C,39.5,92.0,69.0,67.0,69.5,1.0767,-0.1164,-0.1397,0.0,0.0,0.0
2026-06-09T13:47:48.468,C,39.6,92.0,69.0,67.0,69.6,1.0765,-0.1154,-0.1392,0.0,0.0,0.0
2026-06-09T13:47:48.573,C,39.8,92.1,69.1,67.1,69.4,1.0765,-0.1165,-0.1399,0.0,0.0,0.0
2026-06-09T13:47:48.678,C,39.9,92.1,69.1,67.1,68.4,1.0762,-0.1163,-0.1389,0.0,0.0,0.0
2026-06-09T13:47:48.783,C,40.0,92.1,69.1,67.1,67.7,1.076,-0.1166,-0.1384,0.0,0.0,0.0
2026-06-09T13:47:48.888,C,40.1,92.2,69.1,67.2,67.2,1.0756,-0.1166,-0.1385,0.0,0.0,0.0
2026-06-09T13:47:48.993,C,40.2,92.2,69.0,67.2,66.3,1.0757,-0.1173,-0.1388,0.0,0.0,0.0
2026-06-09T13:47:49.098,C,40.3,92.2,69.0,67.2,65.9,1.076,-0.1169,-0.1391,0.0,0.0,0.0
2026-06-09T13:47:49.203,C,40.4,92.2,69.0,67.2,65.9,1.0758,-0.1165,-0.1388,0.0,0.0,0.0
2026-06-09T13:47:49.308,C,40.5,92.2,69.0,67.2,65.9,1.0754,-0.1174,-0.1381,0.0,0.0,0.0
2026-06-09T13:47:49.413,C,40.6,92.2,69.0,67.2,65.9,1.0754,-0.1176,-0.1373,0.0,0.0,0.0
2026-06-09T13:47:49.518,C,40.7,92.2,68.9,67.2,65.8,1.0753,-0.1186,-0.1375,0.0,0.0,0.0
2026-06-09T13:47:49.623,C,40.7,92.2,68.9,67.2,65.7,1.0747,-0.119,-0.1371,0.0,0.0,0.0
2026-06-09T13:47:49.728,C,40.7,92.2,68.8,67.1,65.7,1.0748,-0.1193,-0.1376,0.0,0.0,0.0
2026-06-09T13:47:49.833,C,40.8,92.3,68.8,67.1,65.7,1.075,-0.1182,-0.1378,0.0,0.0,0.0
2026-06-09T13:47:49.938,C,40.8,92.4,68.7,67.1,65.7,1.075,-0.1185,-0.1385,0.0,0.0,0.0
2026-06-09T13:47:50.043,C,40.7,92.5,68.7,67.1,65.8,1.0747,-0.1183,-0.1377,0.0,0.0,0.0
2026-06-09T13:47:50.148,C,40.6,92.7,68.6,67.1,66.0,1.075,-0.1188,-0.1386,0.0,0.0,0.0
2026-06-09T13:47:50.253,C,40.6,92.8,68.6,67.1,66.2,1.075,-0.1168,-0.138,0.0,0.0,0.0
2026-06-09T13:47:50.358,C,40.5,92.9,68.6,67.1,66.5,1.0752,-0.1173,-0.1394,0.0,0.0,0.0
2026-06-09T13:47:50.463,C,40.4,93.0,68.6,67.1,66.7,1.0749,-0.1162,-0.139,0.0,0.0,0.0
2026-06-09T13:47:50.568,C,40.4,93.1,68.5,67.1,67.0,1.0747,-0.1162,-0.139,0.0,0.0,0.0
2026-06-09T13:47:50.673,C,40.3,93.2,68.5,67.1,67.2,1.0735,-0.1173,-0.1371,0.0,0.0,0.0
2026-06-09T13:47:50.778,C,40.3,93.3,68.5,67.1,67.5,1.0739,-0.1168,-0.1382,0.0,0.0,0.0
2026-06-09T13:47:50.883,C,40.3,93.3,68.5,67.1,67.7,1.0734,-0.1173,-0.137,0.0,0.0,0.0
2026-06-09T13:47:50.988,C,40.3,93.4,68.5,67.1,67.8,1.0736,-0.1175,-0.1375,0.0,0.0,0.0
2026-06-09T13:47:51.093,C,40.3,93.5,68.5,67.0,67.9,1.0735,-0.1172,-0.1371,0.0,0.0,0.0
2026-06-09T13:47:51.198,C,40.3,93.5,68.5,67.0,67.9,1.0724,-0.1178,-0.1352,0.0,0.0,0.0
2026-06-09T13:47:51.303,C,40.3,93.6,68.5,67.0,67.8,1.073,-0.1187,-0.1366,0.0,0.0,0.0
2026-06-09T13:47:51.408,C,40.3,93.6,68.6,67.0,67.7,1.0746,-0.1193,-0.1399,0.0,0.0,0.0
2026-06-09T13:47:51.513,C,40.3,93.7,68.6,67.0,67.6,1.0758,-0.1181,-0.1412,0.0,0.0,0.0
2026-06-09T13:47:51.618,C,40.3,93.8,68.6,66.9,67.5,1.0742,-0.1229,-0.14,0.0,0.0,0.0
2026-06-09T13:47:51.723,C,40.3,93.8,68.6,66.9,67.1,1.0727,-0.123,-0.1383,0.0,0.0,0.0
2026-06-09T13:47:51.828,C,40.2,93.9,68.5,66.9,66.9,1.0703,-0.1211,-0.1337,0.0,0.0,0.0
2026-06-09T13:47:51.933,C,40.2,93.9,68.5,66.9,66.8,1.0683,-0.1245,-0.1333,0.0,0.0,0.0
2026-06-09T13:53:25.597,D,0.0,0.0,25.3,0.0,0.0,1.3424,-0.1168,-0.7927,0.0,0.0,-6.6608
2026-06-09T13:53:25.598,D,0.0,0.0,25.1,0.0,0.0,1.3449,-0.1103,-0.7918,0.0,0.0,-7.1996
2026-06-09T13:53:25.598,D,0.0,0.0,24.8,0.0,0.0,1.3468,-0.1083,-0.7902,0.0,0.0,-7.2341
2026-06-09T13:53:25.598,D,0.0,0.0,24.8,0.0,0.0,1.349,-0.1071,-0.7878,0.0,0.0,-7.2705
2026-06-09T13:53:25.599,D,0.0,0.0,24.9,0.0,0.0,1.3499,-0.1028,-0.7868,0.0,0.0,-7.1758
2026-06-09T13:53:25.599,D,0.0,0.0,25.0,0.0,0.0,1.3508,-0.1013,-0.7917,0.0,0.0,-7.1196
2026-06-09T13:53:25.600,D,0.0,0.0,25.2,0.0,0.0,1.3513,-0.0997,-0.7923,0.0,0.0,-7.0865
2026-06-09T13:53:25.600,D,0.0,0.0,25.4,0.0,0.0,1.3518,-0.0994,-0.7927,0.0,0.0,-7.169
2026-06-09T13:53:25.600,D,0.0,0.0,25.7,0.0,0.0,1.3531,-0.0987,-0.7935,0.0,0.0,-7.176
2026-06-09T13:53:25.778,D,0.0,0.0,25.3,0.0,0.0,1.355,-0.0948,-0.7923,0.0,0.0,-6.7454
2026-06-09T13:53:25.883,D,0.0,0.0,24.9,0.0,0.0,1.3556,-0.0953,-0.7914,0.0,0.0,-6.6581
2026-06-09T13:53:25.988,D,0.0,0.0,24.9,0.0,0.0,1.3559,-0.095,-0.7916,0.0,0.0,-6.63
2026-06-09T13:53:26.093,D,0.0,0.0,24.9,0.0,0.0,1.3561,-0.0946,-0.7921,0.0,0.0,-6.652
2026-06-09T13:53:26.198,D,0.0,0.0,24.8,0.0,0.0,1.3565,-0.0955,-0.7916,0.0,0.0,-6.6283
2026-06-09T13:53:26.303,D,0.0,0.0,24.6,0.0,0.0,1.3564,-0.0975,-0.7911,0.0,0.0,-6.6375
2026-06-09T13:53:26.408,D,0.0,0.0,24.1,0.0,0.0,1.3563,-0.0986,-0.7912,0.0,0.0,-6.6664
2026-06-09T13:53:26.513,D,0.0,0.0,23.5,0.0,0.0,1.3562,-0.0992,-0.7904,0.0,0.0,-6.6039
2026-06-09T13:53:26.618,D,0.0,0.0,22.8,0.0,0.0,1.3553,-0.1005,-0.7894,0.0,0.0,-6.5491
2026-06-09T13:53:26.723,D,0.0,0.0,22.3,0.0,0.0,1.3546,-0.1024,-0.7897,0.0,0.0,-6.5342
2026-06-09T13:53:26.828,D,0.0,0.0,21.9,0.0,0.0,1.3546,-0.1034,-0.7884,0.0,0.0,-6.5284
2026-06-09T13:53:26.933,D,0.0,0.0,21.8,0.0,0.0,1.3541,-0.104,-0.7888,0.0,0.0,-6.5827
2026-06-09T13:53:27.038,D,0.0,0.0,22.1,0.0,0.0,1.3542,-0.1038,-0.7891,0.0,0.0,-6.6217
2026-06-09T13:53:27.143,D,0.0,0.0,22.4,0.0,0.0,1.3541,-0.1037,-0.7885,0.0,0.0,-6.6331
2026-06-09T13:53:27.248,D,0.0,0.0,22.6,0.0,0.0,1.3537,-0.1043,-0.7886,0.0,0.0,-6.6281
2026-06-09T13:53:27.353,D,0.0,0.0,22.7,0.0,0.0,1.3533,-0.1042,-0.789,0.0,0.0,-6.6319
2026-06-09T13:53:27.458,D,0.0,0.0,22.5,0.0,0.0,1.3537,-0.1044,-0.7903,0.0,0.0,-6.6492
2026-06-09T13:53:27.563,D,0.0,0.0,22.3,0.0,0.0,1.3534,-0.1047,-0.7913,0.0,0.0,-6.7937
2026-06-09T13:53:27.668,D,0.0,0.0,22.0,0.0,0.0,1.3543,-0.1035,-0.7894,0.0,0.0,-6.7055
2026-06-09T13:53:27.773,D,0.0,0.0,21.8,0.0,0.0,1.3554,-0.1033,-0.7901,0.0,0.0,-6.7161
2026-06-09T13:53:27.878,D,0.0,0.0,21.7,0.0,0.0,1.3554,-0.1037,-0.7898,0.0,0.0,-6.744
2026-06-09T13:53:27.983,D,0.0,0.0,21.6,0.0,0.0,1.3551,-0.1038,-0.7919,0.0,0.0,-6.8157
2026-06-09T13:53:28.088,D,0.0,0.0,21.5,0.0,0.0,1.3552,-0.1038,-0.7931,0.0,0.0,-6.9077
2026-06-09T13:53:28.193,D,0.0,0.0,21.4,0.0,0.0,1.355,-0.1041,-0.7926,0.0,0.0,-6.9111
2026-06-09T13:53:28.298,D,0.0,0.0,21.3,0.0,0.0,1.3552,-0.104,-0.7952,0.0,0.0,-6.8058
2026-06-09T13:53:28.403,D,0.0,0.0,21.4,0.0,0.0,1.3555,-0.1046,-0.7984,0.0,0.0,-6.5965
2026-06-09T13:53:28.508,D,0.0,0.0,21.4,0.0,0.0,1.3556,-0.1078,-0.7957,0.0,0.0,-6.3783
2026-06-09T13:53:28.613,D,0.0,0.0,21.5,0.0,0.0,1.3562,-0.1106,-0.7971,0.0,0.0,-6.5194
2026-06-09T13:53:28.718,D,0.0,0.0,21.5,0.0,0.0,1.3608,-0.1119,-0.7904,0.0,0.0,-6.1792
2026-06-09T13:53:28.823,D,0.0,0.0,21.6,0.0,0.0,1.3651,-0.1125,-0.7952,0.0,0.0,-5.8119
2026-06-09T13:53:28.928,D,0.0,0.0,21.7,0.0,0.0,1.3584,-0.1214,-0.8067,0.0,0.0,-5.1753
2026-06-09T13:53:29.033,D,0.0,0.0,21.7,0.0,0.0,1.3518,-0.1199,-0.8229,0.0,0.0,-6.1481
2026-06-09T13:53:29.138,D,0.0,0.0,21.9,0.0,0.0,1.3472,-0.1194,-0.832,0.0,0.0,-6.5374
2026-06-09T13:53:29.243,D,0.0,0.0,21.8,0.0,0.0,1.3472,-0.1213,-0.8305,0.0,0.0,-6.3305
2026-06-09T13:53:29.348,D,0.0,0.0,21.6,0.0,0.0,1.3487,-0.1226,-0.8328,0.0,0.0,-7.1833
2026-06-09T13:53:29.453,D,0.0,0.0,21.3,0.0,0.0,1.3546,-0.1158,-0.8354,0.0,0.0,-7.7713
2026-06-09T13:53:29.558,D,0.0,0.0,21.0,0.0,0.0,1.3558,-0.116,-0.842,0.0,0.0,-7.9533
2026-06-09T13:53:29.663,D,0.0,0.0,20.8,0.0,0.0,1.3572,-0.1116,-0.8494,0.0,0.0,-7.9307
2026-06-09T13:53:29.768,D,0.0,0.0,20.5,0.0,0.0,1.3574,-0.1084,-0.8532,0.0,0.0,-7.8708
2026-06-09T13:53:29.873,D,0.0,0.0,20.2,0.0,0.0,1.358,-0.1065,-0.859,0.0,0.0,-7.6939
2026-06-09T13:53:29.978,D,0.0,0.0,20.0,0.0,0.0,1.3581,-0.1038,-0.8619,0.0,0.0,-7.5179
2026-06-09T13:53:30.083,D,0.0,0.0,19.9,0.0,0.0,1.3587,-0.1019,-0.8615,0.0,0.0,-7.3893
2026-06-09T13:53:30.188,D,0.0,0.0,19.9,0.0,0.0,1.3585,-0.102,-0.8627,0.0,0.0,-7.4881
2026-06-09T13:53:30.293,D,0.0,0.0,19.9,0.0,0.0,1.3588,-0.1008,-0.8684,0.0,0.0,-7.8449
2026-06-09T13:53:30.398,D,0.0,0.0,19.8,0.0,0.0,1.3603,-0.0959,-0.8756,0.0,0.0,-7.6614
2026-06-09T13:53:30.503,D,0.0,0.0,19.8,0.0,0.0,1.361,-0.0951,-0.8784,0.0,0.0,-7.5231
2026-06-09T13:53:30.608,D,0.0,0.0,19.7,0.0,0.0,1.3598,-0.0936,-0.8814,0.0,0.0,-7.6077
2026-06-09T13:53:30.713,D,0.0,0.0,19.6,0.0,0.0,1.3623,-0.0894,-0.8914,0.0,0.0,-7.8663
2026-06-09T13:53:30.818,D,0.0,0.0,19.5,0.0,0.0,1.3621,-0.0884,-0.896,0.0,0.0,-7.4601
2026-06-09T13:53:30.923,D,0.0,0.0,19.5,0.0,0.0,1.3589,-0.0889,-0.8975,0.0,0.0,-7.2556
2026-06-09T13:53:31.028,D,0.0,0.0,19.6,0.0,0.0,1.3631,-0.0864,-0.9051,0.0,0.0,-7.2265
2026-06-09T13:53:31.133,D,0.0,0.0,19.7,0.0,0.0,1.3655,-0.0855,-0.9044,0.0,0.0,-6.5858
2026-06-09T13:53:31.238,D,0.0,0.0,19.7,0.0,0.0,1.3722,-0.0866,-0.903,0.0,0.0,-5.8405
2026-06-09T13:53:31.343,D,0.0,0.0,19.6,0.0,0.0,1.3685,-0.0877,-0.8967,0.0,0.0,-4.6521
2026-06-09T13:53:31.448,D,0.0,0.0,19.6,0.0,0.0,1.3585,-0.1021,-0.8896,0.0,0.0,0.0
2026-06-09T13:53:31.553,D,0.0,0.0,19.9,0.0,0.0,1.3357,-0.11,-0.8838,0.0,0.0,0.0
2026-06-09T13:53:31.658,D,0.0,0.0,20.3,0.0,0.0,1.3304,-0.1204,-0.8834,0.0,0.0,0.0
2026-06-09T13:53:31.763,D,0.0,0.0,20.9,0.0,0.0,1.3408,-0.1144,-0.8914,0.0,0.0,0.0
2026-06-09T13:53:31.868,D,0.0,0.0,21.5,0.0,0.0,1.3524,-0.1056,-0.8952,0.0,0.0,0.0
2026-06-09T13:53:31.973,D,0.0,0.0,22.1,0.0,0.0,1.3525,-0.1022,-0.8971,0.0,0.0,0.0
2026-06-09T13:53:32.078,D,0.0,0.0,22.8,0.0,0.0,1.3554,-0.0964,-0.9019,0.0,0.0,0.0
2026-06-09T13:53:32.183,D,0.0,0.0,23.3,0.0,0.0,1.3591,-0.0881,-0.9054,0.0,0.0,0.0
2026-06-09T13:53:32.288,D,0.0,0.0,23.8,0.0,0.0,1.3595,-0.0889,-0.9081,0.0,0.0,0.0
2026-06-09T13:53:32.393,D,0.0,0.0,24.2,0.0,0.0,1.3604,-0.0854,-0.9049,0.0,0.0,0.0
2026-06-09T13:53:32.498,D,0.0,0.0,24.6,0.0,0.0,1.3596,-0.0822,-0.9051,0.0,0.0,0.0
2026-06-09T13:53:32.603,D,0.0,0.0,25.0,0.0,0.0,1.3601,-0.0793,-0.9097,0.0,0.0,0.0
2026-06-09T13:53:32.708,D,0.0,0.0,25.4,0.0,0.0,1.361,-0.0784,-0.9111,0.0,0.0,0.0
2026-06-09T13:53:32.813,D,0.0,0.0,25.4,0.0,0.0,1.361,-0.0775,-0.9109,0.0,0.0,0.0
2026-06-09T13:53:32.918,D,0.0,0.0,24.8,0.0,0.0,1.3619,-0.0751,-0.9121,0.0,0.0,0.0
2026-06-09T13:53:33.023,D,0.0,0.0,24.0,0.0,0.0,1.3623,-0.0747,-0.9138,0.0,0.0,0.0
2026-06-09T13:53:33.128,D,0.0,0.0,23.1,0.0,0.0,1.3622,-0.074,-0.9136,0.0,0.0,0.0
2026-06-09T13:53:33.233,D,0.0,0.0,22.2,0.0,0.0,1.3617,-0.0729,-0.913,0.0,0.0,0.0
2026-06-09T13:53:33.338,D,0.0,0.0,21.4,0.0,0.0,1.3619,-0.0716,-0.9175,0.0,0.0,0.0
2026-06-09T13:53:33.443,D,0.0,0.0,20.8,0.0,0.0,1.3635,-0.0707,-0.9204,0.0,0.0,0.0
2026-06-09T13:53:33.548,D,0.0,0.0,20.7,0.0,0.0,1.3639,-0.069,-0.9211,0.0,0.0,0.0
2026-06-09T13:53:33.653,D,0.0,0.0,20.8,0.0,0.0,1.3635,-0.0708,-0.9229,0.0,0.0,0.0
2026-06-09T13:53:33.758,D,0.0,0.0,21.0,0.0,0.0,1.3629,-0.0715,-0.9268,0.0,0.0,0.0
2026-06-09T13:53:33.863,D,0.0,0.0,21.3,0.0,0.0,1.3628,-0.0702,-0.9318,0.0,0.0,0.0
2026-06-09T13:53:33.968,D,0.0,0.0,21.6,0.0,0.0,1.3629,-0.0697,-0.9336,0.0,0.0,0.0
2026-06-09T13:53:34.073,D,0.0,0.0,22.0,0.0,0.0,1.362,-0.0715,-0.9336,0.0,0.0,0.0
2026-06-09T13:53:34.178,D,0.0,0.0,22.3,0.0,0.0,1.3622,-0.0712,-0.936,0.0,0.0,0.0
2026-06-09T13:53:34.283,D,0.0,0.0,22.7,0.0,0.0,1.3619,-0.072,-0.9383,0.0,0.0,0.0
2026-06-09T13:53:34.388,D,0.0,0.0,23.0,0.0,0.0,1.3619,-0.0715,-0.9413,0.0,0.0,0.0
2026-06-09T13:53:34.493,D,0.0,0.0,23.3,0.0,0.0,1.3623,-0.0705,-0.9433,0.0,0.0,0.0
2026-06-09T13:53:34.598,D,0.0,0.0,23.6,0.0,0.0,1.3628,-0.0697,-0.9449,0.0,0.0,0.0
2026-06-09T13:53:34.703,D,0.0,0.0,23.8,0.0,0.0,1.3626,-0.0702,-0.9456,0.0,0.0,0.0
2026-06-09T13:53:34.808,D,0.0,0.0,23.9,0.0,0.0,1.3622,-0.0698,-0.9455,0.0,0.0,0.0
2026-06-09T13:53:34.913,D,0.0,0.0,24.1,0.0,0.0,1.3627,-0.0696,-0.9469,0.0,0.0,0.0
2026-06-09T13:53:35.018,D,0.0,0.0,24.2,0.0,0.0,1.363,-0.0689,-0.9479,0.0,0.0,0.0
2026-06-09T13:53:35.123,D,0.0,0.0,24.3,0.0,0.0,1.3632,-0.0693,-0.9473,0.0,0.0,0.0
2026-06-09T13:53:35.228,D,0.0,0.0,24.4,0.0,0.0,1.3625,-0.0695,-0.9471,0.0,0.0,0.0
2026-06-09T13:53:35.333,D,0.0,0.0,24.5,0.0,0.0,1.362,-0.0704,-0.9481,0.0,0.0,0.0
2026-06-09T13:53:35.438,D,0.0,0.0,24.5,0.0,0.0,1.3621,-0.0701,-0.9484,0.0,0.0,0.0
2026-06-09T13:53:35.543,D,0.0,0.0,24.5,0.0,0.0,1.3623,-0.07,-0.9479,0.0,0.0,0.0
2026-06-09T13:53:35.649,D,0.0,0.0,24.5,0.0,0.0,1.362,-0.0695,-0.9483,0.0,0.0,0.0
2026-06-09T13:54:45.440,E,0.0,100.0,93.3,100.0,100.0,1.3568,-0.0766,-0.9354,0.0,0.0,0.0
2026-06-09T13:54:45.441,E,0.0,100.0,93.4,100.0,100.0,1.3585,-0.0804,-0.9349,0.0,0.0,0.0
2026-06-09T13:54:45.441,E,0.0,100.0,93.4,100.0,100.0,1.3593,-0.08,-0.9345,0.0,0.0,0.0
2026-06-09T13:54:45.442,E,0.0,100.0,93.4,100.0,100.0,1.36,-0.0802,-0.9348,0.0,0.0,0.0
2026-06-09T13:54:45.442,E,0.0,100.0,93.4,100.0,100.0,1.3601,-0.0806,-0.9352,0.0,0.0,0.0
2026-06-09T13:54:45.443,E,0.0,100.0,93.4,100.0,100.0,1.3597,-0.0794,-0.9358,0.0,0.0,0.0
2026-06-09T13:54:45.443,E,0.0,100.0,93.4,100.0,100.0,1.3596,-0.0798,-0.9351,0.0,0.0,0.0
2026-06-09T13:54:45.491,E,0.0,100.0,93.4,100.0,100.0,1.3605,-0.08,-0.9354,0.0,0.0,0.0
2026-06-09T13:54:45.596,E,0.0,100.0,93.4,100.0,100.0,1.3602,-0.0798,-0.9339,0.0,0.0,0.0
2026-06-09T13:54:45.701,E,0.0,100.0,93.4,100.0,100.0,1.3597,-0.0783,-0.933,0.0,0.0,0.0
2026-06-09T13:54:45.806,E,0.0,100.0,93.4,100.0,100.0,1.3595,-0.079,-0.9328,0.0,0.0,0.0
2026-06-09T13:54:45.911,E,0.0,100.0,93.4,100.0,100.0,1.3596,-0.0783,-0.9319,0.0,0.0,0.0
2026-06-09T13:54:46.016,E,0.0,100.0,93.4,100.0,100.0,1.3597,-0.0778,-0.9321,0.0,0.0,0.0
2026-06-09T13:54:46.121,E,0.0,100.0,93.4,100.0,100.0,1.3603,-0.0785,-0.9317,0.0,0.0,0.0
2026-06-09T13:54:46.226,E,0.0,100.0,93.4,100.0,100.0,1.3587,-0.0768,-0.9315,0.0,0.0,0.0
2026-06-09T13:54:46.331,E,0.0,100.0,93.5,100.0,100.0,1.3591,-0.0777,-0.9336,0.0,0.0,0.0
2026-06-09T13:54:46.436,E,0.0,100.0,93.5,100.0,100.0,1.3603,-0.0781,-0.9327,0.0,0.0,0.0
2026-06-09T13:54:46.541,E,0.0,100.0,93.5,100.0,100.0,1.3617,-0.0788,-0.9325,0.0,0.0,0.0
2026-06-09T13:54:46.646,E,0.0,100.0,93.5,100.0,100.0,1.3615,-0.0792,-0.9333,0.0,0.0,0.0
2026-06-09T13:54:46.751,E,0.0,100.0,93.5,100.0,100.0,1.3622,-0.0795,-0.9336,0.0,0.0,0.0
2026-06-09T13:54:46.856,E,0.0,100.0,93.5,100.0,100.0,1.3621,-0.0788,-0.9333,0.0,0.0,0.0
2026-06-09T13:54:46.961,E,0.0,100.0,93.5,100.0,100.0,1.3616,-0.0789,-0.9324,0.0,0.0,0.0
2026-06-09T13:54:47.066,E,0.0,100.0,93.5,100.0,100.0,1.3604,-0.0773,-0.9326,0.0,0.0,0.0
2026-06-09T13:54:47.171,E,0.0,100.0,93.5,100.0,100.0,1.3598,-0.0766,-0.9322,0.0,0.0,0.0
2026-06-09T13:54:47.276,E,0.0,100.0,93.4,100.0,100.0,1.3602,-0.076,-0.9322,0.0,0.0,0.0
2026-06-09T13:54:47.381,E,0.0,100.0,93.4,100.0,100.0,1.3601,-0.0754,-0.9303,0.0,0.0,0.0
2026-06-09T13:54:47.486,E,0.0,100.0,93.3,100.0,100.0,1.3593,-0.0749,-0.9304,0.0,0.0,0.0
2026-06-09T13:54:47.591,E,0.0,100.0,93.2,100.0,100.0,1.3592,-0.0742,-0.9311,0.0,0.0,0.0
2026-06-09T13:54:47.696,E,0.0,100.0,93.2,100.0,100.0,1.3596,-0.0753,-0.9319,0.0,0.0,0.0
2026-06-09T13:54:47.801,E,0.0,100.0,93.2,100.0,100.0,1.3595,-0.0758,-0.9322,0.0,0.0,0.0
2026-06-09T13:54:47.906,E,0.0,100.0,93.2,100.0,100.0,1.36,-0.0764,-0.9327,0.0,0.0,0.0
2026-06-09T13:54:48.011,E,0.0,100.0,93.1,100.0,100.0,1.3609,-0.077,-0.9332,0.0,0.0,0.0
2026-06-09T13:54:48.116,E,0.0,100.0,93.2,100.0,100.0,1.3625,-0.0775,-0.9361,0.0,0.0,0.0
2026-06-09T13:54:48.221,E,0.0,100.0,93.2,100.0,100.0,1.3653,-0.0778,-0.937,0.0,0.0,0.0
2026-06-09T13:54:48.326,E,0.0,100.0,93.2,100.0,100.0,1.3655,-0.0783,-0.9381,0.0,0.0,0.0
2026-06-09T13:54:48.431,E,0.0,100.0,93.2,100.0,100.0,1.3645,-0.0776,-0.9381,0.0,0.0,0.0
2026-06-09T13:54:48.536,E,0.0,100.0,93.2,100.0,100.0,1.3639,-0.0773,-0.9385,0.0,0.0,0.0
2026-06-09T13:54:48.641,E,0.0,100.0,93.1,100.0,100.0,1.3644,-0.077,-0.9384,0.0,0.0,0.0
2026-06-09T13:54:48.746,E,0.0,100.0,93.1,100.0,100.0,1.3641,-0.0769,-0.9379,0.0,0.0,0.0
2026-06-09T13:54:48.851,E,0.0,100.0,93.2,100.0,100.0,1.363,-0.0772,-0.9383,0.0,0.0,0.0
2026-06-09T13:54:48.956,E,0.0,100.0,93.2,100.0,100.0,1.3624,-0.0775,-0.9384,0.0,0.0,0.0
2026-06-09T13:54:49.061,E,0.0,100.0,93.2,100.0,100.0,1.3621,-0.0766,-0.9387,0.0,0.0,0.0
2026-06-09T13:54:49.166,E,0.0,100.0,93.2,100.0,100.0,1.3623,-0.0759,-0.9369,0.0,0.0,0.0
2026-06-09T13:54:49.271,E,0.0,100.0,93.2,100.0,100.0,1.361,-0.0757,-0.9374,0.0,0.0,0.0
2026-06-09T13:54:49.376,E,0.0,100.0,93.2,100.0,100.0,1.3607,-0.075,-0.9383,0.0,0.0,0.0
2026-06-09T13:54:49.481,E,0.0,100.0,93.2,100.0,100.0,1.361,-0.0743,-0.9383,0.0,0.0,0.0
2026-06-09T13:54:49.586,E,0.0,100.0,93.2,100.0,100.0,1.362,-0.0747,-0.9388,0.0,0.0,0.0
2026-06-09T13:54:49.691,E,0.0,100.0,93.2,100.0,100.0,1.3622,-0.0743,-0.9389,0.0,0.0,0.0
2026-06-09T13:54:49.796,E,0.0,100.0,93.3,100.0,100.0,1.3624,-0.0755,-0.9397,0.0,0.0,0.0
2026-06-09T13:54:49.901,E,0.0,100.0,93.3,100.0,100.0,1.3629,-0.0753,-0.9396,0.0,0.0,0.0
2026-06-09T13:54:50.006,E,0.0,100.0,93.3,100.0,100.0,1.3639,-0.0763,-0.9403,0.0,0.0,0.0
2026-06-09T13:54:50.111,E,0.0,100.0,93.2,100.0,100.0,1.3631,-0.0754,-0.941,0.0,0.0,0.0
2026-06-09T13:54:50.216,E,0.0,100.0,93.2,100.0,100.0,1.3627,-0.0748,-0.9409,0.0,0.0,0.0
2026-06-09T13:54:50.321,E,0.0,100.0,93.2,100.0,100.0,1.3618,-0.0751,-0.9416,0.0,0.0,0.0
2026-06-09T13:54:50.426,E,0.0,100.0,93.2,100.0,100.0,1.3614,-0.0758,-0.9416,0.0,0.0,0.0
2026-06-09T13:54:50.531,E,0.0,100.0,93.1,100.0,100.0,1.3612,-0.0753,-0.9413,0.0,0.0,0.0
2026-06-09T13:54:50.636,E,0.0,100.0,93.1,100.0,100.0,1.362,-0.0765,-0.9435,0.0,0.0,0.0
2026-06-09T13:54:50.741,E,0.0,100.0,93.0,100.0,100.0,1.3614,-0.0779,-0.9437,0.0,0.0,0.0
2026-06-09T13:54:50.846,E,0.0,100.0,93.0,100.0,100.0,1.3603,-0.0754,-0.9424,0.0,0.0,0.0
2026-06-09T13:54:50.951,E,0.0,100.0,93.0,100.0,100.0,1.3598,-0.075,-0.9438,0.0,0.0,0.0
2026-06-09T13:54:51.056,E,0.0,100.0,93.0,100.0,100.0,1.3613,-0.0763,-0.9454,0.0,0.0,0.0
2026-06-09T13:54:51.161,E,0.0,100.0,92.9,100.0,100.0,1.361,-0.0753,-0.9469,0.0,0.0,0.0
2026-06-09T13:54:51.266,E,0.0,100.0,92.9,100.0,100.0,1.3606,-0.0757,-0.9478,0.0,0.0,0.0
2026-06-09T13:54:51.371,E,0.0,100.0,92.9,100.0,100.0,1.3602,-0.0752,-0.9487,0.0,0.0,0.0
2026-06-09T13:54:51.476,E,0.0,100.0,92.9,100.0,100.0,1.3597,-0.075,-0.9507,0.0,0.0,0.0
2026-06-09T13:54:51.581,E,0.0,100.0,92.9,100.0,100.0,1.3591,-0.0725,-0.9498,0.0,0.0,0.0
2026-06-09T13:54:51.686,E,0.0,100.0,92.9,100.0,100.0,1.3595,-0.0718,-0.9519,0.0,0.0,0.0
2026-06-09T13:54:51.791,E,0.0,100.0,92.9,100.0,100.0,1.3607,-0.0726,-0.9506,0.0,0.0,0.0
2026-06-09T13:54:51.896,E,0.0,100.0,92.9,100.0,100.0,1.3615,-0.0726,-0.9513,0.0,0.0,0.0
2026-06-09T13:54:52.001,E,0.0,100.0,92.9,100.0,100.0,1.3621,-0.0724,-0.9536,0.0,0.0,0.0
2026-06-09T13:54:52.106,E,0.0,100.0,92.9,100.0,100.0,1.3614,-0.0708,-0.9544,0.0,0.0,0.0
2026-06-09T13:54:52.211,E,0.0,100.0,92.9,100.0,100.0,1.3611,-0.0698,-0.9541,0.0,0.0,0.0
2026-06-09T13:54:52.316,E,0.0,100.0,92.9,100.0,100.0,1.3612,-0.0695,-0.9545,0.0,0.0,0.0
2026-06-09T13:54:52.421,E,0.0,100.0,92.9,100.0,100.0,1.361,-0.0688,-0.9549,0.0,0.0,0.0
2026-06-09T13:54:52.526,E,0.0,100.0,92.9,100.0,100.0,1.3616,-0.0695,-0.956,0.0,0.0,0.0
2026-06-09T13:54:52.631,E,0.0,100.0,92.9,100.0,100.0,1.3628,-0.0703,-0.9578,0.0,0.0,0.0
2026-06-09T13:54:52.736,E,0.0,100.0,93.0,100.0,100.0,1.363,-0.0702,-0.9567,0.0,0.0,0.0
2026-06-09T13:54:52.841,E,0.0,100.0,93.0,100.0,100.0,1.3626,-0.0706,-0.9587,0.0,0.0,0.0
2026-06-09T13:54:52.946,E,0.0,100.0,93.0,100.0,100.0,1.3619,-0.071,-0.9596,0.0,0.0,0.0
2026-06-09T13:54:53.051,E,0.0,100.0,93.0,100.0,100.0,1.3606,-0.0713,-0.9591,0.0,0.0,0.0
2026-06-09T13:54:53.156,E,0.0,100.0,93.1,100.0,100.0,1.36,-0.0721,-0.9585,0.0,0.0,0.0
2026-06-09T13:54:53.261,E,0.0,100.0,93.1,100.0,100.0,1.3584,-0.0714,-0.9593,0.0,0.0,0.0
2026-06-09T13:54:53.366,E,0.0,100.0,93.1,100.0,100.0,1.3585,-0.0703,-0.9584,0.0,0.0,0.0
2026-06-09T13:54:53.471,E,0.0,100.0,93.2,100.0,100.0,1.3594,-0.07,-0.9579,0.0,0.0,0.0
2026-06-09T13:54:53.576,E,0.0,100.0,93.2,100.0,100.0,1.359,-0.0702,-0.9593,0.0,0.0,0.0
2026-06-09T13:54:53.681,E,0.0,100.0,93.3,100.0,100.0,1.3571,-0.069,-0.9599,0.0,0.0,0.0
2026-06-09T13:54:53.786,E,0.0,100.0,93.3,100.0,100.0,1.3559,-0.0677,-0.9621,0.0,0.0,0.0
2026-06-09T13:54:53.891,E,0.0,100.0,93.3,100.0,100.0,1.3547,-0.0669,-0.9616,0.0,0.0,0.0
2026-06-09T13:54:53.996,E,0.0,100.0,93.4,100.0,100.0,1.3547,-0.0673,-0.9637,0.0,0.0,0.0
2026-06-09T13:54:54.101,E,0.0,100.0,93.4,100.0,100.0,1.3552,-0.0692,-0.9648,0.0,0.0,0.0
2026-06-09T13:54:54.206,E,0.0,100.0,93.4,100.0,100.0,1.3551,-0.069,-0.9644,0.0,0.0,0.0
2026-06-09T13:54:54.311,E,0.0,100.0,93.4,100.0,100.0,1.3563,-0.0701,-0.9639,0.0,0.0,0.0
2026-06-09T13:54:54.416,E,0.0,100.0,93.5,100.0,100.0,1.3565,-0.0724,-0.965,0.0,0.0,0.0
2026-06-09T13:54:54.521,E,0.0,100.0,93.5,100.0,100.0,1.3565,-0.0724,-0.9655,0.0,0.0,0.0
2026-06-09T13:54:54.626,E,0.0,100.0,93.5,100.0,100.0,1.3578,-0.0731,-0.9664,0.0,0.0,0.0
2026-06-09T13:54:54.731,E,0.0,100.0,93.5,100.0,100.0,1.3575,-0.0719,-0.9656,0.0,0.0,0.0
2026-06-09T13:54:54.836,E,0.0,100.0,93.5,100.0,100.0,1.357,-0.0716,-0.9654,0.0,0.0,0.0
2026-06-09T13:54:54.941,E,0.0,100.0,93.5,100.0,100.0,1.3569,-0.0721,-0.9652,0.0,0.0,0.0
2026-06-09T13:54:55.046,E,0.0,100.0,93.5,100.0,100.0,1.3576,-0.0718,-0.9656,0.0,0.0,0.0
2026-06-09T13:54:55.151,E,0.0,100.0,93.6,100.0,100.0,1.3591,-0.072,-0.9655,0.0,0.0,0.0
2026-06-09T13:54:55.256,E,0.0,100.0,93.6,100.0,100.0,1.3588,-0.0713,-0.9673,0.0,0.0,0.0
2026-06-09T13:54:55.361,E,0.0,100.0,93.6,100.0,100.0,1.359,-0.0715,-0.9676,0.0,0.0,0.0
2026-06-09T13:54:55.466,E,0.0,100.0,93.7,100.0,100.0,1.3604,-0.0729,-0.9668,0.0,0.0,0.0
2026-06-09T13:56:47.926,F,0.0,24.0,0.0,0.0,0.0,1.3763,0.0312,-0.8861,0.0,0.0,0.0
2026-06-09T13:56:48.031,F,0.0,24.0,0.0,0.0,0.0,1.3752,0.0284,-0.8927,0.0,0.0,0.0
2026-06-09T13:56:48.136,F,0.0,24.0,0.0,0.0,0.0,1.3747,0.026,-0.8926,0.0,0.0,0.0
2026-06-09T13:56:48.241,F,0.0,24.1,0.0,0.0,0.0,1.3743,0.0255,-0.8909,0.0,0.0,0.0
2026-06-09T13:56:48.346,F,0.0,24.2,0.0,0.0,0.0,1.3748,0.028,-0.8848,0.0,0.0,0.0
2026-06-09T13:56:48.451,F,0.0,24.2,0.0,0.0,0.0,1.3744,0.027,-0.8826,0.0,0.0,0.0
2026-06-09T13:56:48.556,F,0.0,24.2,0.0,0.0,0.0,1.3743,0.0287,-0.8842,0.0,0.0,0.0
2026-06-09T13:56:48.661,F,0.0,24.2,0.0,0.0,0.0,1.3737,0.0272,-0.8875,0.0,0.0,0.0
2026-06-09T13:56:48.766,F,0.0,24.3,0.0,0.0,0.0,1.3738,0.0282,-0.885,0.0,0.0,0.0
2026-06-09T13:56:48.871,F,0.0,24.3,0.0,0.0,0.0,1.3734,0.0248,-0.882,0.0,0.0,0.0
2026-06-09T13:56:48.976,F,0.0,24.4,0.0,0.0,0.0,1.3727,0.0228,-0.8823,0.0,0.0,0.0
2026-06-09T13:56:49.081,F,0.0,24.5,0.0,0.0,0.0,1.3724,0.0241,-0.8809,0.0,0.0,0.0
2026-06-09T13:56:49.186,F,0.0,24.5,0.0,0.0,0.0,1.3724,0.022,-0.8791,0.0,0.0,0.0
2026-06-09T13:56:49.291,F,0.0,24.6,0.0,0.0,0.0,1.3722,0.021,-0.8801,0.0,0.0,0.0
2026-06-09T13:56:49.396,F,0.0,24.8,0.0,0.0,0.0,1.3723,0.0206,-0.8828,0.0,0.0,0.0
2026-06-09T13:56:49.501,F,0.0,25.0,0.0,0.0,0.0,1.3726,0.0211,-0.8842,0.0,0.0,0.0
2026-06-09T13:56:49.606,F,0.0,25.3,0.0,0.0,0.0,1.3729,0.0222,-0.8844,0.0,0.0,0.0
2026-06-09T13:56:49.711,F,0.0,25.5,0.0,0.0,0.0,1.373,0.0199,-0.8854,0.0,0.0,0.0
2026-06-09T13:56:49.816,F,0.0,25.7,0.0,0.0,0.0,1.373,0.0191,-0.8856,0.0,0.0,0.0
2026-06-09T13:56:49.921,F,0.0,25.8,0.0,0.0,0.0,1.3733,0.0187,-0.8857,0.0,0.0,0.0
2026-06-09T13:56:50.026,F,0.0,25.9,0.0,0.0,0.0,1.3733,0.0185,-0.8852,0.0,0.0,0.0
2026-06-09T13:56:50.131,F,0.0,26.1,0.0,0.0,0.0,1.3731,0.0188,-0.8848,0.0,0.0,0.0
2026-06-09T13:56:50.236,F,0.0,26.4,0.0,0.0,0.0,1.3737,0.0178,-0.8851,0.0,0.0,0.0
2026-06-09T13:56:50.341,F,0.0,26.6,0.0,0.0,0.0,1.374,0.017,-0.8848,0.0,0.0,0.0
2026-06-09T13:56:50.446,F,0.0,26.8,0.0,0.0,0.0,1.374,0.0174,-0.8857,0.0,0.0,0.0
2026-06-09T13:56:50.551,F,0.0,27.0,0.0,0.0,0.0,1.3742,0.0173,-0.8869,0.0,0.0,0.0
2026-06-09T13:56:50.656,F,0.0,27.1,0.0,0.0,0.0,1.374,0.0155,-0.8873,0.0,0.0,0.0
2026-06-09T13:56:50.761,F,0.0,27.2,0.0,0.0,0.0,1.3741,0.0153,-0.8877,0.0,0.0,0.0
2026-06-09T13:56:50.866,F,0.0,27.3,0.0,0.0,0.0,1.374,0.0156,-0.8889,0.0,0.0,0.0
2026-06-09T13:56:50.971,F,0.0,27.4,0.0,0.0,0.0,1.374,0.0149,-0.8895,0.0,0.0,0.0
2026-06-09T13:56:51.076,F,0.0,27.5,0.0,0.0,0.0,1.3737,0.0141,-0.888,0.0,0.0,0.0
2026-06-09T13:56:51.181,F,0.0,27.6,0.0,0.0,0.0,1.3739,0.0133,-0.8891,0.0,0.0,0.0
2026-06-09T13:56:51.286,F,0.0,27.6,0.0,0.0,0.0,1.3742,0.012,-0.8907,0.0,0.0,0.0
2026-06-09T13:56:51.391,F,0.0,27.7,0.0,0.0,0.0,1.374,0.0109,-0.8916,0.0,0.0,0.0
2026-06-09T13:56:51.496,F,0.0,27.7,0.0,0.0,0.0,1.3743,0.0095,-0.8914,0.0,0.0,0.0
2026-06-09T13:56:51.601,F,0.0,27.8,0.0,0.0,0.0,1.3742,0.0079,-0.8926,0.0,0.0,0.0
2026-06-09T13:56:51.706,F,0.0,27.8,0.0,0.0,0.0,1.374,0.0074,-0.8933,0.0,0.0,0.0
2026-06-09T13:56:51.811,F,0.0,27.8,0.0,0.0,0.0,1.3736,0.0057,-0.8941,0.0,0.0,0.0
2026-06-09T13:56:51.916,F,0.0,27.9,3.0,0.0,0.0,1.3736,0.0036,-0.8952,0.0,0.0,0.0
2026-06-09T13:56:52.021,F,0.0,27.9,5.2,0.0,0.0,1.3734,0.0032,-0.8961,0.0,0.0,0.0
2026-06-09T13:56:52.126,F,0.0,28.0,6.7,0.0,0.0,1.3725,0.0006,-0.8968,0.0,0.0,0.0
2026-06-09T13:56:52.231,F,0.0,28.1,7.8,0.0,0.0,1.3719,-0.0027,-0.8969,0.0,0.0,0.0
2026-06-09T13:56:52.336,F,0.0,28.1,8.5,0.0,0.0,1.3716,-0.0046,-0.8976,0.0,0.0,0.0
2026-06-09T13:56:52.441,F,0.0,28.2,9.1,0.0,0.0,1.3712,-0.0051,-0.8973,0.0,0.0,0.0
2026-06-09T13:56:52.546,F,0.0,28.2,9.6,0.0,0.0,1.371,-0.0088,-0.8982,0.0,0.0,0.0
2026-06-09T13:56:52.652,F,0.0,28.3,10.0,0.0,0.0,1.3704,-0.0112,-0.9012,0.0,0.0,0.0
2026-06-09T13:56:52.757,F,0.0,28.3,10.3,0.0,0.0,1.3699,-0.014,-0.9028,0.0,0.0,0.0
2026-06-09T13:56:52.862,F,0.0,28.3,10.5,0.0,0.0,1.3697,-0.0154,-0.9032,0.0,0.0,0.0
2026-06-09T13:56:52.967,F,0.0,28.2,10.7,0.0,0.0,1.3689,-0.0162,-0.9037,0.0,0.0,0.0
2026-06-09T13:56:53.072,F,0.0,28.1,10.8,0.0,0.0,1.3688,-0.0186,-0.9039,0.0,0.0,0.0
2026-06-09T13:56:53.177,F,0.0,27.9,10.9,0.0,0.0,1.3686,-0.0194,-0.9043,0.0,0.0,0.0
2026-06-09T13:56:53.282,F,0.0,27.8,11.0,0.0,0.0,1.369,-0.02,-0.9029,0.0,0.0,0.0
2026-06-09T13:56:53.387,F,0.0,27.7,11.1,0.0,0.0,1.3694,-0.0199,-0.9034,0.0,0.0,0.0
2026-06-09T13:56:53.492,F,0.0,27.6,11.2,0.0,0.0,1.3697,-0.0221,-0.903,0.0,0.0,0.0
2026-06-09T13:56:53.597,F,0.0,27.5,11.2,0.0,0.0,1.3699,-0.0218,-0.903,0.0,0.0,0.0
2026-06-09T13:56:53.702,F,0.0,27.4,11.3,0.0,0.0,1.3694,-0.0226,-0.9023,0.0,0.0,0.0
2026-06-09T13:56:53.807,F,0.0,27.4,11.3,0.0,0.0,1.369,-0.0223,-0.9018,0.0,0.0,0.0
2026-06-09T13:56:53.912,F,0.0,27.3,11.4,0.0,0.0,1.3687,-0.0228,-0.9018,0.0,0.0,0.0
2026-06-09T13:56:54.017,F,0.0,27.2,11.4,0.0,0.0,1.3685,-0.0218,-0.9022,0.0,0.0,0.0
2026-06-09T13:56:54.122,F,0.0,27.2,11.4,0.0,0.0,1.3688,-0.0225,-0.9019,0.0,0.0,0.0
2026-06-09T13:56:54.227,F,0.0,27.2,11.5,0.0,0.0,1.3693,-0.0228,-0.9012,0.0,0.0,0.0
2026-06-09T13:56:54.332,F,0.0,27.1,11.5,0.0,0.0,1.3697,-0.0233,-0.9009,0.0,0.0,0.0
2026-06-09T13:56:54.437,F,0.0,27.1,11.6,0.0,0.0,1.3701,-0.0233,-0.9018,0.0,0.0,0.0
2026-06-09T13:56:54.542,F,0.0,27.1,11.6,0.0,0.0,1.37,-0.0242,-0.9021,0.0,0.0,0.0
2026-06-09T13:56:54.647,F,0.0,27.1,11.7,0.0,0.0,1.3699,-0.0244,-0.9012,0.0,0.0,0.0
2026-06-09T13:56:54.752,F,0.0,27.1,11.7,0.0,0.0,1.37,-0.0247,-0.9019,0.0,0.0,0.0
2026-06-09T13:56:54.857,F,0.0,27.1,11.7,0.0,0.0,1.3702,-0.0246,-0.9018,0.0,0.0,0.0
2026-06-09T13:56:54.962,F,0.0,27.1,11.7,0.0,0.0,1.3702,-0.025,-0.9012,0.0,0.0,0.0
2026-06-09T13:56:55.067,F,0.0,27.2,11.7,0.0,0.0,1.37,-0.0246,-0.9019,0.0,0.0,0.0
2026-06-09T13:56:55.172,F,0.0,27.2,11.8,0.0,0.0,1.3696,-0.0258,-0.9022,0.0,0.0,0.0
2026-06-09T13:56:55.277,F,0.0,27.2,11.8,0.0,0.0,1.3696,-0.0256,-0.9023,0.0,0.0,0.0
2026-06-09T13:56:55.382,F,0.0,27.3,11.9,0.0,0.0,1.3697,-0.0253,-0.9032,0.0,0.0,0.0
2026-06-09T13:56:55.487,F,0.0,27.3,11.9,0.0,0.0,1.3694,-0.0254,-0.9033,0.0,0.0,0.0
2026-06-09T13:56:55.592,F,0.0,27.4,11.9,0.0,0.0,1.3692,-0.0255,-0.9036,0.0,0.0,0.0
2026-06-09T13:56:55.697,F,0.0,27.5,11.9,0.0,0.0,1.3694,-0.0252,-0.9038,0.0,0.0,0.0
2026-06-09T13:56:55.802,F,0.0,27.6,11.8,0.0,0.0,1.3693,-0.0255,-0.9037,0.0,0.0,0.0
2026-06-09T13:56:55.907,F,0.0,27.7,11.8,0.0,0.0,1.3686,-0.0252,-0.9043,0.0,0.0,0.0
2026-06-09T13:56:56.012,F,0.0,27.8,11.8,0.0,0.0,1.368,-0.0253,-0.9038,0.0,0.0,0.0
2026-06-09T13:56:56.117,F,0.0,28.0,11.8,0.0,0.0,1.3674,-0.0255,-0.9034,0.0,0.0,0.0
2026-06-09T13:56:56.222,F,0.0,28.1,11.7,0.0,0.0,1.3683,-0.026,-0.9032,0.0,0.0,0.0
2026-06-09T13:56:56.327,F,0.0,28.3,11.7,0.0,0.0,1.363,-0.0264,-0.9014,0.0,0.0,0.0
2026-06-09T13:56:56.432,F,0.0,28.5,11.7,0.0,0.0,1.3628,-0.0252,-0.8986,0.0,0.0,0.0
2026-06-09T13:56:56.537,F,0.0,29.2,11.7,0.0,0.0,1.3647,-0.0244,-0.8993,0.0,0.0,0.0
2026-06-09T13:56:56.642,F,0.0,30.1,11.4,0.0,0.0,1.3669,-0.0248,-0.9015,0.0,0.0,0.0
2026-06-09T13:56:56.747,F,0.0,31.2,11.2,0.0,0.0,1.3682,-0.0262,-0.9034,0.0,0.0,0.0
2026-06-09T13:56:56.852,F,0.0,32.4,10.9,0.0,0.0,1.3681,-0.0262,-0.9033,0.0,0.0,0.0
2026-06-09T13:56:56.957,F,0.0,33.6,10.6,0.0,0.0,1.3678,-0.0276,-0.9032,0.0,0.0,0.0
2026-06-09T13:56:57.062,F,0.0,34.7,10.4,0.0,0.0,1.3678,-0.0271,-0.903,0.0,0.0,0.0
2026-06-09T13:56:57.167,F,0.0,35.8,10.1,0.0,0.0,1.3682,-0.0298,-0.9009,0.0,0.0,0.0
2026-06-09T13:56:57.271,F,0.0,36.7,9.9,0.0,0.0,1.3686,-0.0281,-0.9015,0.0,0.0,0.0
2026-06-09T13:56:57.376,F,0.0,37.6,9.7,0.0,0.0,1.3684,-0.03,-0.9007,0.0,0.0,0.0
2026-06-09T13:56:57.481,F,0.0,38.4,9.5,0.0,0.0,1.3678,-0.0282,-0.9001,0.0,0.0,0.0
2026-06-09T13:56:57.586,F,0.0,39.1,9.3,0.0,0.0,1.3678,-0.0298,-0.8991,0.0,0.0,0.0
2026-06-09T13:56:57.691,F,0.0,39.7,9.2,0.0,0.0,1.368,-0.0293,-0.8996,0.0,0.0,0.0
2026-06-09T13:56:57.796,F,0.0,40.3,9.1,0.0,0.0,1.3681,-0.0297,-0.899,0.0,0.0,0.0
2026-06-09T13:56:57.902,F,0.0,40.8,9.1,0.0,0.0,1.3684,-0.0304,-0.8981,0.0,0.0,0.0
2026-06-09T14:20:58.665,G,49.3,0.0,100.0,79.1,100.0,0.405,0.9768,-1.0755,0.0,0.0,0.0
2026-06-09T14:20:58.666,G,49.4,0.0,100.0,78.8,100.0,0.4082,0.9772,-1.0727,0.0,0.0,0.0
2026-06-09T14:20:58.667,G,49.3,0.0,100.0,78.6,100.0,0.4128,0.9727,-1.0663,0.0,0.0,0.0
2026-06-09T14:20:58.667,G,49.2,0.0,100.0,78.5,100.0,0.4121,0.9765,-1.068,0.0,0.0,0.0
2026-06-09T14:20:58.668,G,49.0,0.0,100.0,78.3,100.0,0.4088,0.9832,-1.0637,0.0,0.0,0.0
2026-06-09T14:20:58.668,G,48.9,0.0,100.0,78.2,100.0,0.4112,0.9787,-1.0633,0.0,0.0,0.0
2026-06-09T14:20:58.669,G,48.8,0.0,100.0,78.2,100.0,0.4102,0.9802,-1.062,0.0,0.0,0.0
2026-06-09T14:20:58.670,G,48.6,0.0,100.0,78.1,100.0,0.407,0.9792,-1.0602,0.0,0.0,0.0
2026-06-09T14:20:58.670,G,48.5,0.0,100.0,78.1,100.0,0.4076,0.9773,-1.0567,0.0,0.0,0.0
2026-06-09T14:20:58.701,G,148.1,0.0,100.0,78.2,100.0,0.4089,0.973,-1.0509,0.0,0.0,0.0
2026-06-09T14:20:58.806,G,47.9,0.0,100.0,78.2,100.0,0.4092,0.9739,-1.0492,0.0,0.0,0.0
2026-06-09T14:20:58.911,G,47.8,0.0,100.0,78.3,100.0,0.4102,0.973,-1.0501,0.0,0.0,0.0
2026-06-09T14:20:59.016,G,47.7,0.0,100.0,78.3,100.0,0.411,0.9745,-1.0487,0.0,0.0,0.0
2026-06-09T14:20:59.121,G,47.6,0.0,100.0,78.4,100.0,0.4108,0.9745,-1.0504,0.0,0.0,0.0
2026-06-09T14:20:59.226,G,47.5,0.0,100.0,78.4,100.0,0.411,0.9752,-1.0502,0.0,0.0,0.0
2026-06-09T14:20:59.331,G,47.3,0.0,100.0,78.5,100.0,0.4122,0.9747,-1.0501,0.0,0.0,0.0
2026-06-09T14:20:59.436,G,47.2,0.0,100.0,78.7,100.0,0.4128,0.9757,-1.0501,0.0,0.0,0.0
2026-06-09T14:20:59.541,G,47.2,0.0,100.0,78.8,100.0,0.4138,0.9774,-1.0513,0.0,0.0,0.0
2026-06-09T14:20:59.646,G,47.1,0.0,100.0,79.0,100.0,0.4142,0.9788,-1.0501,0.0,0.0,0.0
2026-06-09T14:20:59.751,G,47.1,0.0,100.0,79.1,100.0,0.4152,0.9795,-1.0524,0.0,0.0,0.0
2026-06-09T14:20:59.857,G,47.1,0.0,100.0,79.2,100.0,0.4156,0.9811,-1.0515,0.0,0.0,0.0
2026-06-09T14:20:59.961,G,47.1,0.0,100.0,79.2,100.0,0.4166,0.9806,-1.0529,0.0,0.0,0.0
2026-06-09T14:21:00.066,G,47.1,0.0,100.0,79.3,100.0,0.4159,0.9821,-1.0519,0.0,0.0,0.0
2026-06-09T14:21:00.171,G,47.1,0.0,100.0,79.4,100.0,0.4153,0.9815,-1.0505,0.0,0.0,0.0
2026-06-09T14:21:00.276,G,47.2,0.0,100.0,79.5,100.0,0.4145,0.9803,-1.0491,0.0,0.0,0.0
2026-06-09T14:21:00.381,G,47.2,0.0,100.0,79.6,100.0,0.4145,0.9803,-1.0488,0.0,0.0,0.0
2026-06-09T14:21:00.486,G,47.3,0.0,100.0,79.6,100.0,0.4154,0.9783,-1.0482,0.0,0.0,0.0
2026-06-09T14:21:00.591,G,47.3,0.0,100.0,79.7,100.0,0.4167,0.9768,-1.049,0.0,0.0,0.0
2026-06-09T14:21:00.696,G,47.3,0.0,100.0,79.8,100.0,0.418,0.9773,-1.0499,0.0,0.0,0.0
2026-06-09T14:21:00.801,G,47.4,0.0,100.0,79.9,100.0,0.4189,0.9772,-1.049,0.0,0.0,0.0
2026-06-09T14:21:00.906,G,47.4,0.0,100.0,79.9,100.0,0.4203,0.978,-1.0505,0.0,0.0,0.0
2026-06-09T14:21:01.011,G,47.5,0.0,100.0,80.0,100.0,0.4202,0.979,-1.0491,0.0,0.0,0.0
2026-06-09T14:21:01.116,G,47.5,0.0,100.0,80.0,100.0,0.4206,0.9785,-1.0489,0.0,0.0,0.0
2026-06-09T14:21:01.221,G,47.5,0.0,100.0,79.9,100.0,0.4196,0.9789,-1.0471,0.0,0.0,0.0
2026-06-09T14:21:01.326,G,47.6,0.0,100.0,79.8,100.0,0.4204,0.9793,-1.0469,0.0,0.0,0.0
2026-06-09T14:21:01.431,G,47.6,0.0,100.0,79.7,100.0,0.421,0.9795,-1.0474,0.0,0.0,0.0
2026-06-09T14:21:01.536,G,47.6,0.0,100.0,79.6,100.0,0.422,0.9797,-1.0472,0.0,0.0,0.0
2026-06-09T14:21:01.641,G,47.6,0.0,100.0,79.5,100.0,0.4226,0.9804,-1.0481,0.0,0.0,0.0
2026-06-09T14:21:01.746,G,47.6,0.0,100.0,79.4,100.0,0.4224,0.98,-1.0472,0.0,0.0,0.0
2026-06-09T14:21:01.851,G,47.7,0.0,100.0,79.3,100.0,0.4226,0.9804,-1.0471,0.0,0.0,0.0
2026-06-09T14:21:01.956,G,47.7,0.0,100.0,79.3,100.0,0.4242,0.9807,-1.0466,0.0,0.0,0.0
2026-06-09T14:21:02.061,G,47.7,0.0,100.0,79.2,100.0,0.423,0.9818,-1.048,0.0,0.0,0.0
2026-06-09T14:21:02.166,G,47.7,0.0,100.0,79.2,100.0,0.423,0.9821,-1.0461,0.0,0.0,0.0
2026-06-09T14:21:02.271,G,47.8,0.0,100.0,79.2,100.0,0.4232,0.9824,-1.0459,0.0,0.0,0.0
2026-06-09T14:21:02.376,G,47.8,0.0,100.0,79.2,100.0,0.4229,0.9836,-1.0456,0.0,0.0,0.0
2026-06-09T14:21:02.481,G,47.8,0.0,100.0,79.1,100.0,0.4229,0.9835,-1.0449,0.0,0.0,0.0
2026-06-09T14:21:02.586,G,47.8,0.0,100.0,79.1,100.0,0.4219,0.9833,-1.0428,0.0,0.0,0.0
2026-06-09T14:21:02.691,G,47.8,0.0,100.0,79.1,100.0,0.4215,0.9823,-1.0428,0.0,0.0,0.0
2026-06-09T14:21:02.796,G,47.8,0.0,100.0,79.1,100.0,0.4216,0.9826,-1.0418,0.0,0.0,0.0
2026-06-09T14:21:02.901,G,47.9,0.0,100.0,79.2,100.0,0.422,0.9818,-1.0416,0.0,0.0,0.0
2026-06-09T14:21:03.006,G,47.8,0.0,100.0,79.2,100.0,0.423,0.981,-1.0404,0.0,0.0,0.0
2026-06-09T14:21:03.111,G,47.7,0.0,100.0,79.2,100.0,0.4237,0.9803,-1.0405,0.0,0.0,0.0
2026-06-09T14:21:03.216,G,47.6,0.0,100.0,79.1,100.0,0.4241,0.9808,-1.041,0.0,0.0,0.0
2026-06-09T14:21:03.321,G,47.5,0.0,100.0,79.1,100.0,0.4245,0.9809,-1.0405,0.0,0.0,0.0
2026-06-09T14:21:03.426,G,47.3,0.0,100.0,79.1,100.0,0.4242,0.9828,-1.041,0.0,0.0,0.0
2026-06-09T14:21:03.531,G,47.3,0.0,100.0,79.1,100.0,0.4243,0.9823,-1.0411,0.0,0.0,0.0
2026-06-09T14:21:03.636,G,47.2,0.0,100.0,79.0,100.0,0.425,0.983,-1.0414,0.0,0.0,0.0
2026-06-09T14:21:03.741,G,47.2,0.0,100.0,79.0,100.0,0.4266,0.9837,-1.0425,0.0,0.0,0.0
2026-06-09T14:21:03.846,G,47.1,0.0,100.0,79.0,100.0,0.4274,0.9844,-1.0423,0.0,0.0,0.0
2026-06-09T14:21:03.951,G,47.0,0.0,100.0,79.0,100.0,0.4281,0.9843,-1.0418,0.0,0.0,0.0
2026-06-09T14:21:04.056,G,47.0,0.0,100.0,79.0,100.0,0.4285,0.9835,-1.0408,0.0,0.0,0.0
2026-06-09T14:21:04.161,G,46.9,0.0,100.0,78.9,100.0,0.4293,0.9821,-1.0381,0.0,0.0,0.0
2026-06-09T14:21:04.266,G,47.0,0.0,100.0,78.9,100.0,0.429,0.9818,-1.0383,0.0,0.0,0.0
2026-06-09T14:21:04.371,G,47.1,0.0,100.0,78.9,100.0,0.4288,0.982,-1.0362,0.0,0.0,0.0
2026-06-09T14:21:04.476,G,47.1,0.0,100.0,78.8,100.0,0.4286,0.982,-1.0369,0.0,0.0,0.0
2026-06-09T14:21:04.581,G,47.1,0.0,100.0,78.8,100.0,0.4287,0.9836,-1.0368,0.0,0.0,0.0
2026-06-09T14:21:04.686,G,47.1,0.0,100.0,78.6,100.0,0.4293,0.9833,-1.0393,0.0,0.0,0.0
2026-06-09T14:21:04.791,G,47.2,0.0,100.0,78.3,100.0,0.4305,0.9857,-1.0372,0.0,0.0,0.0
2026-06-09T14:21:04.896,G,47.1,0.0,100.0,78.0,100.0,0.4317,0.9854,-1.0389,0.0,0.0,0.0
2026-06-09T14:21:05.001,G,47.1,0.0,100.0,77.6,100.0,0.4323,0.9879,-1.0372,0.0,0.0,0.0
2026-06-09T14:21:05.106,G,47.0,0.0,100.0,77.3,100.0,0.433,0.9879,-1.0388,0.0,0.0,0.0
2026-06-09T14:21:05.211,G,46.8,0.0,100.0,77.0,100.0,0.4341,0.9896,-1.0351,0.0,0.0,0.0
2026-06-09T14:21:05.316,G,46.8,0.0,100.0,76.6,100.0,0.4346,0.9881,-1.0361,0.0,0.0,0.0
2026-06-09T14:21:05.421,G,46.9,0.0,100.0,76.2,100.0,0.4347,0.9894,-1.0344,0.0,0.0,0.0
2026-06-09T14:21:05.526,G,46.9,0.0,100.0,75.8,100.0,0.4346,0.9887,-1.0355,0.0,0.0,0.0
2026-06-09T14:21:05.632,G,46.9,0.0,100.0,75.5,100.0,0.4345,0.9889,-1.0312,0.0,0.0,0.0
2026-06-09T14:21:05.736,G,46.8,0.0,100.0,75.3,100.0,0.4355,0.9847,-1.032,0.0,0.0,0.0
2026-06-09T14:21:05.841,G,46.6,0.0,100.0,75.1,100.0,0.4339,0.9867,-1.0264,0.0,0.0,0.0
2026-06-09T14:21:05.946,G,46.4,0.0,100.0,74.9,100.0,0.4341,0.9848,-1.0304,0.0,0.0,0.0
2026-06-09T14:21:06.051,G,46.3,0.0,100.0,74.7,100.0,0.4346,0.9846,-1.0244,0.0,0.0,0.0
2026-06-09T14:21:06.156,G,46.3,0.0,100.0,74.6,100.0,0.4357,0.9819,-1.0278,0.0,0.0,0.0
2026-06-09T14:21:06.261,G,46.3,0.0,100.0,74.7,100.0,0.4355,0.983,-1.0236,0.0,0.0,0.0
2026-06-09T14:21:06.366,G,46.4,0.0,100.0,74.8,100.0,0.4369,0.9804,-1.0257,0.0,0.0,0.0
2026-06-09T14:21:06.471,G,46.5,0.0,100.0,75.1,100.0,0.4373,0.9811,-1.0217,0.0,0.0,0.0
2026-06-09T14:21:06.577,G,46.7,0.0,100.0,75.4,100.0,0.4379,0.9798,-1.0237,0.0,0.0,0.0
2026-06-09T14:21:06.681,G,46.8,0.0,100.0,75.6,100.0,0.4375,0.9807,-1.019,0.0,0.0,0.0
2026-06-09T14:21:06.786,G,47.0,0.0,100.0,75.9,100.0,0.4381,0.9791,-1.0218,0.0,0.0,0.0
2026-06-09T14:21:06.891,G,47.2,0.0,100.0,76.1,100.0,0.4371,0.9801,-1.017,0.0,0.0,0.0
2026-06-09T14:21:06.996,G,47.4,0.0,100.0,76.3,100.0,0.4375,0.978,-1.0191,0.0,0.0,0.0
2026-06-09T14:21:07.101,G,47.6,0.0,100.0,76.5,100.0,0.4376,0.9788,-1.0162,0.0,0.0,0.0
2026-06-09T14:21:07.206,G,47.7,0.0,100.0,76.6,100.0,0.4391,0.9777,-1.019,0.0,0.0,0.0
2026-06-09T14:21:07.311,G,47.9,0.0,100.0,76.7,100.0,0.4396,0.979,-1.0164,0.0,0.0,0.0
2026-06-09T14:21:07.416,G,48.0,0.0,100.0,76.7,100.0,0.4416,0.9784,-1.0179,0.0,0.0,0.0
2026-06-09T14:21:07.521,G,48.0,0.0,100.0,76.8,100.0,0.4421,0.9801,-1.0155,0.0,0.0,0.0
2026-06-09T14:21:07.626,G,48.0,0.0,100.0,76.9,100.0,0.4431,0.9804,-1.0185,0.0,0.0,0.0
2026-06-09T14:21:07.731,G,48.1,0.0,100.0,77.1,100.0,0.4432,0.9828,-1.017,0.0,0.0,0.0
2026-06-09T14:21:07.836,G,48.0,0.0,100.0,77.3,100.0,0.4439,0.9831,-1.0185,0.0,0.0,0.0
2026-06-09T14:21:07.941,G,47.9,0.0,100.0,77.2,100.0,0.4441,0.9838,-1.0161,0.0,0.0,0.0
2026-06-09T14:21:08.046,G,47.8,0.0,100.0,77.3,100.0,0.4446,0.9825,-1.0162,0.0,0.0,0.0
2026-06-09T14:21:08.151,G,47.8,0.0,100.0,77.4,100.0,0.4453,0.9824,-1.0149,0.0,0.0,0.0
2026-06-09T14:21:08.256,G,47.7,0.0,100.0,77.5,100.0,0.4453,0.9817,-1.0151,0.0,0.0,0.0
2026-06-09T14:21:08.361,G,47.6,0.0,100.0,77.7,100.0,0.4443,0.9799,-1.0132,0.0,0.0,0.0
2026-06-09T14:21:08.466,G,47.6,0.0,100.0,77.9,100.0,0.444,0.9802,-1.0136,0.0,0.0,0.0
2026-06-09T14:21:08.571,G,47.6,0.0,100.0,78.1,100.0,0.443,0.9795,-1.0154,0.0,0.0,0.0
2026-06-09T14:21:08.676,G,47.6,0.0,100.0,78.2,100.0,0.4419,0.9801,-1.0121,0.0,0.0,0.02026-06-09T14:37:32.918,J,0.0,0.0,0.0,17.7,0.0,0.8934,0.7348,-0.3693,-4.3608,0.0,-6.8559
2026-06-09T14:37:32.919,J,0.0,0.0,0.0,19.1,0.0,0.8936,0.7336,-0.3718,-4.0787,0.0,-6.7507
2026-06-09T14:37:32.919,J,0.0,0.0,0.0,20.2,0.0,0.8921,0.736,-0.3692,-4.1943,0.0,-6.7187
2026-06-09T14:37:32.919,J,0.0,0.0,0.0,21.2,0.0,0.8923,0.7342,-0.3687,0.0,0.0,-6.5288
2026-06-09T14:37:32.920,J,0.0,0.0,0.0,21.6,0.0,0.8911,0.7344,-0.3657,0.0,0.0,-6.564
2026-06-09T14:37:32.920,J,0.0,0.0,0.0,22.3,0.0,0.8906,0.7331,-0.3635,0.0,0.0,-6.4979
2026-06-09T14:37:32.921,J,0.0,0.0,0.0,23.2,0.0,0.8894,0.7334,-0.3603,0.0,0.0,-6.4545
2026-06-09T14:37:32.921,J,0.0,0.0,0.0,24.2,0.0,0.8901,0.7313,-0.3596,0.0,0.0,-6.3796
2026-06-09T14:37:32.921,J,0.0,0.0,0.0,24.1,0.0,0.8886,0.7309,-0.3558,0.0,0.0,-6.4305
2026-06-09T14:37:33.030,J,58.2,100.0,65.3,39.1,0.0,1.3306,0.0298,-0.9293,-13.3348,4.7927,0.0
2026-06-09T14:37:33.135,J,58.0,100.0,65.4,38.5,0.0,1.3298,0.0176,-0.9162,-16.7225,0.0,0.0
2026-06-09T14:37:33.240,J,58.0,100.0,65.4,38.6,0.0,1.3274,-0.0018,-0.962,-19.5966,-4.4726,0.0
2026-06-09T14:37:33.345,J,57.3,100.0,65.4,38.4,0.0,1.3262,-0.0127,-1.0253,-19.1268,-6.598,0.0
2026-06-09T14:37:33.451,J,57.0,100.0,65.4,38.2,0.0,1.3229,-0.0086,-1.0734,-15.5803,-6.0436,-4.2125
2026-06-09T14:37:33.558,J,56.5,100.0,65.2,38.5,0.0,1.3215,0.0145,-1.1141,-5.5244,0.0,-10.0457
2026-06-09T14:37:33.664,J,56.5,100.0,65.0,39.2,0.0,1.3235,0.065,-1.1217,0.0,0.0,-15.0598
2026-06-09T14:37:33.769,J,56.6,100.0,64.8,39.6,0.0,1.3283,0.1175,-1.1034,4.3384,5.8556,-14.1968
2026-06-09T14:37:33.874,J,56.8,100.0,64.5,40.0,0.0,1.3317,0.1452,-1.0724,0.0,11.0394,-10.1476
2026-06-09T14:37:33.978,J,56.4,100.0,64.3,40.5,0.0,1.3272,0.1366,-1.0083,0.0,13.0674,-5.1126
2026-06-09T14:37:34.083,J,55.9,100.0,64.1,40.2,0.0,1.3256,0.0974,-0.9604,-7.6685,9.3072,0.0
2026-06-09T14:37:34.188,J,55.7,100.0,63.9,39.6,0.0,1.3239,0.0609,-0.9513,-14.7724,0.0,0.0
2026-06-09T14:37:34.293,J,55.7,100.0,63.7,38.9,0.0,1.3233,0.0376,-0.9946,-21.0079,-7.4016,0.0
2026-06-09T14:37:34.398,J,55.9,100.0,63.6,37.9,0.0,1.321,0.0292,-1.0623,-22.5069,-9.199,0.0
2026-06-09T14:37:34.503,J,56.2,100.0,63.6,37.9,0.0,1.3166,0.0342,-1.1217,-17.8179,-6.4983,-4.6156
2026-06-09T14:37:34.609,J,56.2,100.0,63.6,37.6,0.0,1.31,0.045,-1.1556,0.0,0.0,-12.0627
2026-06-09T14:37:34.714,J,56.3,100.0,63.4,37.0,0.0,1.3132,0.1069,-1.1549,7.9895,5.1159,-17.8086
2026-06-09T14:37:34.819,J,56.6,100.0,63.2,36.6,0.0,1.3185,0.1868,-1.1156,7.3709,11.4088,-17.0112
2026-06-09T14:37:34.923,J,56.4,100.0,62.8,36.0,0.0,1.3099,0.2152,-1.0482,0.0,14.722,-10.6173
2026-06-09T14:37:35.028,J,56.3,100.0,62.6,35.8,0.0,1.3046,0.169,-0.989,-9.7746,12.2894,0.0
2026-06-09T14:37:35.133,J,56.4,100.0,62.3,34.2,0.0,1.3086,0.0958,-0.9772,-18.8885,4.8749,0.0
2026-06-09T14:37:35.238,J,56.5,100.0,62.1,33.8,0.0,1.3105,0.0314,-1.0014,-22.1269,0.0,0.0
2026-06-09T14:37:35.343,J,56.5,100.0,62.0,33.9,0.0,1.3125,0.0133,-1.0498,-24.6598,0.0,0.0
2026-06-09T14:37:35.448,J,56.7,100.0,61.9,34.0,0.0,1.315,0.0089,-1.1021,-34.5249,0.0,0.0
2026-06-09T14:37:35.553,J,56.8,100.0,62.0,33.9,0.0,1.3137,0.0178,-1.1311,-22.9669,0.0,-5.0224
2026-06-09T14:37:35.658,J,56.6,100.0,61.9,33.5,0.0,1.3056,0.0305,-1.1596,0.0,4.0709,-13.6983
2026-06-09T14:37:35.764,J,56.6,100.0,61.7,33.8,0.0,1.2992,0.109,-1.1455,12.4956,9.0408,-22.8356
2026-06-09T14:37:35.868,J,56.8,100.0,61.5,34.4,0.0,1.295,0.2091,-1.0963,11.9593,14.5252,-22.3783
2026-06-09T14:37:35.973,J,57.0,100.0,61.4,35.4,0.0,1.2919,0.2395,-1.037,6.8811,16.7336,-14.7263
2026-06-09T14:37:36.079,J,57.1,100.0,61.1,36.4,0.0,1.2919,0.2325,-0.9809,0.0,15.8159,-6.7654
2026-06-09T14:37:36.183,J,57.3,100.0,61.0,37.5,0.0,1.2955,0.1804,-0.9405,-14.2715,10.1159,0.0
2026-06-09T14:37:36.288,J,57.5,100.0,60.9,37.9,0.0,1.2999,0.1195,-0.9514,-26.3488,0.0,0.0
2026-06-09T14:37:36.394,J,57.8,100.0,60.9,37.6,0.0,1.2978,0.0661,-1.0017,-30.8786,-5.5268,0.0
2026-06-09T14:37:36.499,J,58.0,100.0,60.8,36.1,0.0,1.2928,0.0566,-1.0805,-28.147,-7.4796,-5.4751
2026-06-09T14:37:36.604,J,58.1,100.0,60.6,34.9,0.0,1.2888,0.0774,-1.1498,-18.9626,-4.734,-11.4981
2026-06-09T14:37:36.709,J,58.3,100.0,60.5,34.6,0.0,1.2871,0.1033,-1.1906,0.0,0.0,-18.5203
2026-06-09T14:37:36.813,J,58.4,100.0,60.4,34.7,0.0,1.2784,0.1282,-1.1978,15.3407,6.151,-25.8877
2026-06-09T14:37:36.918,J,58.7,100.0,60.3,34.9,0.0,1.2774,0.1961,-1.1605,16.919,12.9091,-31.2251
2026-06-09T14:37:37.023,J,58.8,100.0,60.2,35.1,0.0,1.2722,0.2627,-1.0829,7.7556,15.4601,-27.4021
2026-06-09T14:37:37.128,J,58.9,100.0,60.3,35.3,0.0,1.2709,0.281,-1.0096,-6.1885,10.3399,-19.6737
2026-06-09T14:37:37.234,J,59.0,100.0,60.4,35.2,0.0,1.2812,0.2375,-0.9982,-19.2511,0.0,-11.6967
2026-06-09T14:37:37.338,J,59.1,100.0,60.5,34.1,0.0,1.2889,0.18,-1.0281,-28.2334,-8.6711,-8.3235
2026-06-09T14:37:37.444,J,59.1,100.0,60.6,31.7,0.0,1.2883,0.1501,-1.08,-26.9243,-12.7079,-9.0593
2026-06-09T14:37:37.549,J,59.1,100.0,60.7,29.3,0.0,1.2809,0.1402,-1.1373,-21.1454,-13.48,-11.7773
2026-06-09T14:37:37.654,J,59.2,100.0,60.9,27.9,0.0,1.2718,0.1481,-1.204,-15.1864,-10.3313,-14.8801
2026-06-09T14:37:37.761,J,59.1,100.0,61.1,26.1,0.0,1.2692,0.1674,-1.2387,-4.9889,-5.2998,-18.8809
2026-06-09T14:37:37.866,J,59.1,100.0,61.2,25.2,0.0,1.2691,0.1922,-1.2596,6.2491,0.0,-22.9977
2026-06-09T14:37:37.972,J,59.2,100.0,61.1,25.0,0.0,1.2634,0.2386,-1.2511,17.0221,8.6991,-28.2715
2026-06-09T14:37:38.076,J,59.0,100.0,60.9,25.4,0.0,1.2548,0.3003,-1.1957,17.6041,15.8665,-30.1423
2026-06-09T14:37:38.182,J,58.9,100.0,60.7,25.7,0.0,1.2501,0.3357,-1.1065,8.4569,17.2996,-25.7001
2026-06-09T14:37:38.287,J,58.8,100.0,60.6,25.3,0.0,1.2556,0.3105,-1.0173,-9.8626,9.9245,-16.7716
2026-06-09T14:37:38.392,J,58.7,100.0,60.5,24.6,0.0,1.2782,0.2287,-1.0071,-20.4143,0.0,-9.9382
2026-06-09T14:37:38.496,J,58.7,100.0,60.3,23.8,0.0,1.2902,0.1731,-1.0343,-24.4116,-6.7001,-7.7577
2026-06-09T14:37:38.602,J,58.4,100.0,60.2,22.4,0.0,1.2886,0.1459,-1.0654,-21.355,-10.1279,-8.2517
2026-06-09T14:37:38.707,J,57.3,100.0,59.9,20.5,0.0,1.2832,0.1448,-1.1253,-16.5811,-12.2648,-11.9329
2026-06-09T14:37:38.812,J,56.7,100.0,59.7,19.5,0.0,1.274,0.1663,-1.1815,-10.6754,-9.5522,-15.9452
2026-06-09T14:37:38.917,J,56.2,100.0,59.3,19.5,0.0,1.2699,0.192,-1.2223,0.0,0.0,-20.0113
2026-06-09T14:37:39.021,J,56.0,100.0,58.8,19.9,0.0,1.2648,0.2407,-1.2295,10.6521,9.8862,-24.873
2026-06-09T14:37:39.127,J,55.9,100.0,58.5,20.6,0.0,1.2588,0.2949,-1.1839,14.5642,18.4135,-26.9043
2026-06-09T14:37:39.232,J,56.0,100.0,58.4,21.4,0.0,1.2553,0.3359,-1.1059,7.2004,22.5209,-24.4524
2026-06-09T14:37:39.337,J,56.0,100.0,58.3,22.3,0.0,1.2514,0.3461,-1.0111,0.0,19.1046,-20.2906
2026-06-09T14:37:39.442,J,56.1,100.0,58.3,22.3,0.0,1.2669,0.2995,-0.9552,-17.2899,7.8475,-16.5649
2026-06-09T14:37:39.548,J,56.0,100.0,58.5,22.3,0.0,1.2854,0.258,-0.9712,-28.5759,-5.8275,-14.8904
2026-06-09T14:37:39.652,J,56.1,100.0,58.8,22.2,0.0,1.2953,0.2285,-1.0332,-30.6464,-13.4547,-13.9795
2026-06-09T14:37:39.757,J,56.2,100.0,58.9,21.0,0.0,1.2943,0.2248,-1.0959,-26.7197,-14.9613,-14.5795
2026-06-09T14:37:39.862,J,55.9,100.0,58.9,20.8,0.0,1.2854,0.2449,-1.1529,-22.4261,-13.3355,-15.728
2026-06-09T14:37:39.967,J,55.5,100.0,59.1,21.1,0.0,1.2789,0.2608,-1.1998,-13.8864,-7.2906,-17.3287
2026-06-09T14:37:40.071,J,55.2,100.0,59.1,21.7,0.0,1.27,0.2777,-1.2201,6.1422,0.0,-22.4267
2026-06-09T14:37:40.177,J,55.1,100.0,58.9,22.1,0.0,1.26,0.3447,-1.2132,20.1312,9.0136,-30.4194
2026-06-09T14:37:40.282,J,55.0,100.0,58.4,22.9,0.0,1.2495,0.4023,-1.1655,19.6389,15.1855,-30.561
2026-06-09T14:37:40.387,J,54.7,100.0,58.0,23.8,0.0,1.2478,0.4088,-1.0877,11.7218,16.9493,-26.8822
2026-06-09T14:37:40.492,J,54.2,100.0,58.0,24.8,0.0,1.2538,0.3967,-1.0108,0.0,10.6046,-21.7683
2026-06-09T14:37:40.597,J,54.0,100.0,58.4,25.2,0.0,1.2711,0.362,-0.9909,-15.2257,0.0,-17.9071
2026-06-09T14:37:40.702,J,53.6,100.0,58.9,25.4,0.0,1.2848,0.314,-1.015,-21.8175,-9.1406,-13.2449
2026-06-09T14:37:40.807,J,53.6,100.0,59.4,25.1,0.0,1.2835,0.2763,-1.0505,-19.9615,-14.5907,-12.8856
2026-06-09T14:37:40.912,J,53.7,100.0,59.7,24.6,0.0,1.2787,0.256,-1.1062,-14.9223,-17.0111,-14.3003
2026-06-09T14:37:41.017,J,52.8,100.0,60.0,24.6,0.0,1.2702,0.2585,-1.1896,0.0,-14.6819,-18.7889
2026-06-09T14:37:41.122,J,52.4,100.0,60.3,24.6,0.0,1.2663,0.2642,-1.2508,12.8811,-7.7184,-24.4935
2026-06-09T14:37:41.227,J,52.5,100.0,60.5,24.9,0.0,1.2635,0.2921,-1.2647,19.0642,0.0,-29.6437
2026-06-09T14:37:41.332,J,52.7,100.0,60.7,25.7,0.0,1.264,0.3376,-1.2451,16.6183,11.39,-34.2109
2026-06-09T14:37:41.437,J,52.9,100.0,60.8,26.1,0.0,1.2466,0.3555,-1.135,-7.3089,15.4845,-29.5993
2026-06-09T14:37:41.541,J,53.3,100.0,60.9,26.2,0.0,1.2607,0.3125,-1.0471,-20.6801,9.6497,-25.9564
2026-06-09T14:37:41.647,J,53.6,100.0,60.9,25.7,0.0,1.2811,0.2803,-1.0115,-31.9386,0.0,-24.6572
2026-06-09T14:37:41.752,J,53.6,100.0,60.9,25.6,0.0,1.2947,0.2477,-1.0089,-30.6987,-7.6505,-22.9338
2026-06-09T14:37:41.858,J,53.8,100.0,60.9,25.3,0.0,1.2965,0.2364,-1.0288,-28.7561,-14.8878,-21.1071
2026-06-09T14:37:41.963,J,54.2,100.0,61.0,25.6,0.0,1.2922,0.2421,-1.0846,-19.3704,-19.5732,-23.015
2026-06-09T14:37:42.068,J,54.6,100.0,61.0,26.1,0.0,1.2822,0.2604,-1.1673,-9.1927,-18.8328,-25.1542
2026-06-09T14:37:42.172,J,54.9,100.0,61.0,26.8,0.0,1.2737,0.273,-1.2276,0.0,-13.045,-28.0712
2026-06-09T14:37:42.277,J,55.1,100.0,61.0,27.3,0.0,1.2637,0.2864,-1.2557,10.0933,-4.9673,-31.333
2026-06-09T14:37:42.381,J,55.2,100.0,61.0,27.6,0.0,1.2612,0.3083,-1.2514,14.6758,4.5278,-35.1802
2026-06-09T14:37:42.487,J,55.4,100.0,61.0,27.4,0.0,1.2557,0.3592,-1.2086,12.1306,12.2795,-36.7624
2026-06-09T14:37:42.591,J,55.6,100.0,61.0,26.8,0.0,1.2497,0.3829,-1.1115,0.0,15.7736,-36.6529
2026-06-09T14:37:42.697,J,55.8,100.0,61.0,25.0,0.0,1.2453,0.3853,-1.0215,-18.5952,0.0,-32.9772
2026-06-09T14:37:42.802,J,56.1,100.0,61.0,24.0,0.0,1.2719,0.3685,-1.0364,-33.5904,-17.039,-26.0477
2026-06-09T14:37:42.908,J,56.4,100.0,61.0,23.8,0.0,1.2782,0.3628,-1.0606,-28.6159,-21.523,-23.1516
2026-06-09T14:37:43.013,J,56.6,100.0,61.0,23.7,0.0,1.2696,0.337,-1.0808,-24.1709,-25.7449,-17.4115
2026-06-09T14:40:44.337,K,0.0,0.0,0.0,53.3,100.0,1.3749,0.0546,-0.861,0.0,0.0,0.0
2026-06-09T14:40:44.337,K,0.0,0.0,0.0,53.3,100.0,1.3752,0.056,-0.8606,0.0,0.0,0.0
2026-06-09T14:40:44.338,K,0.0,0.0,0.0,53.2,100.0,1.3752,0.0557,-0.8548,0.0,0.0,0.0
2026-06-09T14:40:44.338,K,0.0,0.0,0.0,53.1,100.0,1.3751,0.0551,-0.8514,0.0,0.0,0.0
2026-06-09T14:40:44.338,K,0.0,0.0,0.0,53.1,100.0,1.3746,0.0539,-0.8502,0.0,0.0,0.0
2026-06-09T14:40:44.339,K,0.0,0.0,0.0,53.0,100.0,1.3745,0.0546,-0.85,0.0,0.0,0.0
2026-06-09T14:40:44.339,K,0.0,0.0,0.0,52.9,100.0,1.3742,0.0539,-0.8461,0.0,0.0,0.0
2026-06-09T14:40:44.340,K,0.0,0.0,0.0,52.8,100.0,1.374,0.0569,-0.8389,0.0,0.0,0.0
2026-06-09T14:40:44.340,K,0.0,0.0,0.0,52.6,100.0,1.3735,0.0545,-0.8313,0.0,0.0,0.0
2026-06-09T14:40:44.349,K,50.0,0.0,0.0,54.7,100.0,1.361,0.0635,-0.7019,0.0,0.0,0.0
2026-06-09T14:40:44.454,K,0.0,0.0,0.0,54.9,100.0,1.3605,0.0618,-0.7028,0.0,0.0,0.0
2026-06-09T14:40:44.559,K,0.0,0.0,0.0,55.1,100.0,1.3613,0.0638,-0.7025,0.0,0.0,0.0
2026-06-09T14:40:44.664,K,0.0,0.0,0.0,55.3,100.0,1.3609,0.061,-0.701,0.0,0.0,0.0
2026-06-09T14:40:44.769,K,0.0,0.0,0.0,55.5,100.0,1.3614,0.0636,-0.7011,0.0,0.0,0.0
2026-06-09T14:40:44.874,K,0.0,0.0,0.0,55.7,100.0,1.3611,0.0621,-0.7012,0.0,0.0,0.0
2026-06-09T14:40:44.979,K,0.0,0.0,0.0,55.8,100.0,1.3612,0.0631,-0.7012,0.0,0.0,0.0
2026-06-09T14:40:45.084,K,0.0,0.0,0.0,56.0,100.0,1.3609,0.0613,-0.702,0.0,0.0,0.0
2026-06-09T14:40:45.189,K,0.0,0.0,0.0,56.1,100.0,1.3609,0.0609,-0.7019,0.0,0.0,0.0
2026-06-09T14:40:45.294,K,0.0,0.0,0.0,56.2,100.0,1.3611,0.0624,-0.7017,0.0,0.0,0.0
2026-06-09T14:40:45.399,K,0.0,0.0,0.0,56.4,100.0,1.361,0.0605,-0.7004,0.0,0.0,0.0
2026-06-09T14:40:45.504,K,0.0,0.0,0.0,56.5,100.0,1.3609,0.0594,-0.7016,0.0,0.0,0.0
2026-06-09T14:40:45.609,K,0.0,0.0,0.0,56.7,100.0,1.3612,0.0606,-0.702,0.0,0.0,0.0
2026-06-09T14:40:45.714,K,0.0,0.0,0.0,56.9,100.0,1.3609,0.0605,-0.7014,0.0,0.0,0.0
2026-06-09T14:40:45.819,K,0.0,0.0,0.0,57.0,100.0,1.3614,0.061,-0.7003,0.0,0.0,0.0
2026-06-09T14:40:45.924,K,0.0,0.0,0.0,57.2,100.0,1.3614,0.0591,-0.7021,0.0,0.0,0.0
2026-06-09T14:40:46.029,K,0.0,0.0,0.0,57.3,100.0,1.3619,0.0606,-0.7013,0.0,0.0,0.0
2026-06-09T14:40:46.134,K,0.0,0.0,0.0,57.4,100.0,1.3614,0.0585,-0.701,0.0,0.0,0.0
2026-06-09T14:40:46.239,K,0.0,0.0,0.0,57.6,100.0,1.3616,0.0603,-0.7014,0.0,0.0,0.0
2026-06-09T14:40:46.344,K,0.0,0.0,0.0,57.7,100.0,1.3614,0.0594,-0.7019,0.0,0.0,0.0
2026-06-09T14:40:46.449,K,0.0,0.0,0.0,57.8,100.0,1.3612,0.0597,-0.7011,0.0,0.0,0.0
2026-06-09T14:40:46.554,K,0.0,0.0,0.0,57.9,100.0,1.361,0.0591,-0.7018,0.0,0.0,0.0
2026-06-09T14:40:46.659,K,0.0,0.0,0.0,58.0,100.0,1.3612,0.0602,-0.7023,0.0,0.0,0.0
2026-06-09T14:40:46.764,K,0.0,0.0,0.0,58.1,100.0,1.3612,0.0593,-0.7024,0.0,0.0,0.0
2026-06-09T14:40:46.869,K,0.0,0.0,0.0,58.2,100.0,1.3618,0.0612,-0.702,0.0,0.0,0.0
2026-06-09T14:40:46.975,K,0.0,0.0,0.0,58.3,100.0,1.3612,0.0608,-0.7017,0.0,0.0,0.0
2026-06-09T14:40:47.079,K,0.0,0.0,0.0,58.4,100.0,1.3613,0.0611,-0.7022,0.0,0.0,0.0
2026-06-09T14:40:47.184,K,0.0,0.0,0.0,58.4,100.0,1.3613,0.0606,-0.7026,0.0,0.0,0.0
2026-06-09T14:40:47.289,K,0.0,0.0,0.0,58.5,100.0,1.3612,0.0604,-0.702,0.0,0.0,0.0
2026-06-09T14:40:47.394,K,0.0,0.0,0.0,58.5,100.0,1.3614,0.0613,-0.6987,0.0,0.0,0.0
2026-06-09T14:40:47.499,K,0.0,0.0,0.0,58.5,100.0,1.3612,0.0591,-0.7,0.0,0.0,0.0
2026-06-09T14:40:47.604,K,0.0,0.0,0.0,58.6,100.0,1.3612,0.0571,-0.7018,0.0,0.0,0.0
2026-06-09T14:40:47.709,K,0.0,0.0,0.0,58.6,100.0,1.3612,0.0561,-0.7038,0.0,0.0,0.0
2026-06-09T14:40:47.814,K,0.0,0.0,0.0,58.6,100.0,1.3616,0.0592,-0.7046,0.0,0.0,0.0
2026-06-09T14:40:47.919,K,0.0,0.0,0.0,58.6,100.0,1.3618,0.0589,-0.7022,0.0,0.0,0.0
2026-06-09T14:40:48.025,K,0.0,0.0,0.0,58.6,100.0,1.3619,0.057,-0.7002,0.0,0.0,0.0
2026-06-09T14:40:48.129,K,0.0,0.0,0.0,58.6,100.0,1.362,0.0592,-0.6971,0.0,0.0,0.0
2026-06-09T14:40:48.234,K,0.0,0.0,0.0,58.6,100.0,1.3617,0.0576,-0.696,0.0,0.0,0.0
2026-06-09T14:40:48.339,K,0.0,0.0,0.0,58.5,100.0,1.362,0.0581,-0.6988,0.0,0.0,0.0
2026-06-09T14:40:48.444,K,0.0,0.0,0.0,58.5,100.0,1.3621,0.0584,-0.6991,0.0,0.0,0.0
2026-06-09T14:40:48.549,K,0.0,0.0,0.0,58.4,100.0,1.362,0.0579,-0.697,0.0,0.0,0.0
2026-06-09T14:40:48.654,K,0.0,0.0,0.0,58.4,100.0,1.362,0.0584,-0.6971,0.0,0.0,0.0
2026-06-09T14:40:48.759,K,0.0,0.0,0.0,58.4,100.0,1.3619,0.0561,-0.699,0.0,0.0,0.0
2026-06-09T14:40:48.864,K,0.0,0.0,0.0,58.4,100.0,1.3624,0.0585,-0.699,0.0,0.0,0.0
2026-06-09T14:40:48.969,K,0.0,0.0,0.0,58.4,100.0,1.3623,0.0579,-0.6994,0.0,0.0,0.0
2026-06-09T14:40:49.075,K,0.0,0.0,0.0,58.5,100.0,1.3623,0.0582,-0.6974,0.0,0.0,0.0
2026-06-09T14:40:49.179,K,0.0,0.0,0.0,58.5,100.0,1.362,0.0578,-0.6969,0.0,0.0,0.0
2026-06-09T14:40:49.284,K,0.0,0.0,0.0,58.5,100.0,1.3618,0.0568,-0.696,0.0,0.0,0.0
2026-06-09T14:40:49.389,K,0.0,0.0,0.0,58.5,100.0,1.3624,0.0553,-0.7006,0.0,0.0,0.0
2026-06-09T14:40:49.494,K,0.0,0.0,0.0,58.6,100.0,1.3626,0.0551,-0.7039,0.0,0.0,0.0
2026-06-09T14:40:49.599,K,0.0,0.0,0.0,58.6,100.0,1.3629,0.0549,-0.7052,0.0,0.0,0.0
2026-06-09T14:40:49.704,K,0.0,0.0,0.0,58.7,100.0,1.3624,0.053,-0.7045,0.0,0.0,0.0
2026-06-09T14:40:49.809,K,0.0,0.0,0.0,58.7,100.0,1.3628,0.0517,-0.7018,0.0,0.0,0.0
2026-06-09T14:40:49.914,K,0.0,0.0,0.0,58.8,100.0,1.3628,0.0513,-0.702,0.0,0.0,0.0
2026-06-09T14:40:50.019,K,0.0,0.0,0.0,58.9,100.0,1.3624,0.049,-0.7022,0.0,0.0,0.0
2026-06-09T14:40:50.124,K,0.0,0.0,0.0,58.9,100.0,1.3623,0.0453,-0.7028,0.0,0.0,0.0
2026-06-09T14:40:50.229,K,0.0,0.0,0.0,59.0,100.0,1.3624,0.0429,-0.7039,0.0,0.0,0.0
2026-06-09T14:40:50.334,K,0.0,0.0,0.0,59.0,100.0,1.3621,0.0402,-0.7037,0.0,0.0,0.0
2026-06-09T14:40:50.439,K,0.0,0.0,0.0,59.0,100.0,1.3615,0.0369,-0.7051,0.0,0.0,0.0
2026-06-09T14:40:50.544,K,0.0,0.0,0.0,59.0,100.0,1.3609,0.0317,-0.7046,0.0,0.0,0.0
2026-06-09T14:40:50.649,K,0.0,0.0,0.0,58.9,100.0,1.3611,0.0302,-0.7063,0.0,0.0,0.0
2026-06-09T14:40:50.754,K,0.0,0.0,0.0,58.7,100.0,1.3611,0.0263,-0.7059,0.0,0.0,0.0
2026-06-09T14:40:50.859,K,0.0,0.0,0.0,58.6,100.0,1.3613,0.023,-0.7068,0.0,0.0,0.0
2026-06-09T14:40:50.964,K,0.0,0.0,0.0,58.4,100.0,1.3616,0.0221,-0.7067,0.0,0.0,0.0
2026-06-09T14:40:51.069,K,0.0,0.0,0.0,58.3,100.0,1.3616,0.0205,-0.7074,0.0,0.0,0.0
2026-06-09T14:40:51.174,K,0.0,0.0,0.0,58.2,100.0,1.3617,0.0189,-0.7087,0.0,0.0,0.0
2026-06-09T14:40:51.279,K,0.0,0.0,0.0,58.1,100.0,1.3614,0.0154,-0.7081,0.0,0.0,0.0
2026-06-09T14:40:51.384,K,0.0,0.0,0.0,58.1,100.0,1.3613,0.015,-0.7085,0.0,0.0,0.0
2026-06-09T14:40:51.489,K,0.0,0.0,0.0,58.1,100.0,1.3617,0.014,-0.7064,0.0,0.0,0.0
2026-06-09T14:40:51.594,K,0.0,0.0,0.0,58.1,100.0,1.3616,0.0126,-0.7088,0.0,0.0,0.0
2026-06-09T14:40:51.699,K,0.0,0.0,0.0,58.0,100.0,1.3615,0.0126,-0.7096,0.0,0.0,0.0
2026-06-09T14:40:51.804,K,0.0,0.0,0.0,58.0,100.0,1.3613,0.0103,-0.7081,0.0,0.0,0.0
2026-06-09T14:40:51.909,K,0.0,0.0,0.0,58.0,100.0,1.3611,0.0082,-0.7111,0.0,0.0,0.0
2026-06-09T14:40:52.015,K,0.0,0.0,0.0,58.1,100.0,1.3612,0.0083,-0.7086,0.0,0.0,0.0
2026-06-09T14:40:52.119,K,0.0,0.0,0.0,58.1,100.0,1.3607,0.006,-0.7069,0.0,0.0,0.0
2026-06-09T14:40:52.224,K,0.0,0.0,0.0,58.1,100.0,1.3605,0.0067,-0.7084,0.0,0.0,0.0
2026-06-09T14:40:52.329,K,0.0,0.0,0.0,58.1,100.0,1.3604,0.0054,-0.7092,0.0,0.0,0.0
2026-06-09T14:40:52.434,K,0.0,0.0,0.0,58.1,100.0,1.3604,0.0036,-0.709,0.0,0.0,0.0
2026-06-09T14:40:52.540,K,0.0,0.0,0.0,58.0,100.0,1.3602,0.0023,-0.7113,0.0,0.0,0.0
2026-06-09T14:40:52.644,K,0.0,0.0,0.0,57.9,100.0,1.3603,0.0017,-0.7103,0.0,0.0,0.0
2026-06-09T14:40:52.749,K,0.0,0.0,0.0,57.9,100.0,1.3603,-0.0001,-0.7103,0.0,0.0,0.0
2026-06-09T14:40:52.854,K,0.0,0.0,0.0,57.8,100.0,1.3602,-0.0014,-0.71,0.0,0.0,0.0
2026-06-09T14:40:52.959,K,0.0,0.0,0.0,57.8,100.0,1.3602,-0.0019,-0.7121,0.0,0.0,0.0
2026-06-09T14:40:53.064,K,0.0,0.0,0.0,57.9,100.0,1.3605,-0.0032,-0.7116,0.0,0.0,0.0
2026-06-09T14:40:53.169,K,0.0,0.0,0.0,57.9,100.0,1.3609,-0.0016,-0.7129,0.0,0.0,0.0
2026-06-09T14:40:53.274,K,0.0,0.0,0.0,57.9,100.0,1.3605,-0.0023,-0.7124,0.0,0.0,0.0
2026-06-09T14:40:53.379,K,0.0,0.0,0.0,57.9,100.0,1.3606,-0.0021,-0.713,0.0,0.0,0.0
2026-06-09T14:40:53.484,K,0.0,0.0,0.0,57.8,100.0,1.3605,-0.0006,-0.7131,0.0,0.0,0.0
2026-06-09T14:40:53.589,K,0.0,0.0,0.0,57.8,100.0,1.3599,-0.0021,-0.7134,0.0,0.0,0.0
2026-06-09T14:40:53.694,K,0.0,0.0,0.0,57.8,100.0,1.3597,-0.0028,-0.7129,0.0,0.0,0.0
2026-06-09T14:40:53.799,K,0.0,0.0,0.0,57.7,100.0,1.3599,-0.0023,-0.7128,0.0,0.0,0.0
2026-06-09T14:40:53.904,K,0.0,0.0,0.0,57.6,100.0,1.36,-0.0026,-0.7139,0.0,0.0,0.0
2026-06-09T14:40:54.009,K,0.0,0.0,0.0,57.6,100.0,1.36,-0.0026,-0.7138,0.0,0.0,0.0
2026-06-09T14:40:54.115,K,0.0,0.0,0.0,57.6,100.0,1.36,-0.003,-0.7156,0.0,0.0,0.0
2026-06-09T14:40:54.220,K,0.0,0.0,0.0,57.5,100.0,1.3596,-0.0021,-0.715,0.0,0.0,0.0
2026-06-09T14:40:54.324,K,0.0,0.0,0.0,57.5,100.0,1.3592,0.0015,-0.7075,0.0,0.0,0.0
2026-06-09T14:40:54.429,K,0.0,0.0,0.0,57.5,100.0,1.3594,0.0025,-0.7041,0.0,0.0,0.0
2026-06-09T14:42:21.157,L,0.0,0.0,67.5,68.6,100.0,1.348,-0.1022,-0.7681,0.0,0.0,0.0
2026-06-09T14:42:21.158,L,0.0,0.0,67.5,68.7,100.0,1.3495,-0.1041,-0.7698,0.0,0.0,0.0
2026-06-09T14:42:21.158,L,0.0,0.0,67.5,68.7,100.0,1.3528,-0.1019,-0.7666,0.0,0.0,0.0
2026-06-09T14:42:21.159,L,0.0,0.0,67.5,68.7,100.0,1.3504,-0.1027,-0.7655,0.0,0.0,0.0
2026-06-09T14:42:21.159,L,0.0,0.0,67.6,68.8,100.0,1.3501,-0.1014,-0.7626,0.0,0.0,0.0
2026-06-09T14:42:21.159,L,0.0,0.0,67.6,68.8,100.0,1.3506,-0.1003,-0.7635,0.0,0.0,0.0
2026-06-09T14:42:21.160,L,0.0,0.0,67.6,68.9,100.0,1.3547,-0.1005,-0.7676,0.0,0.0,0.0
2026-06-09T14:42:21.160,L,0.0,0.0,67.6,69.0,100.0,1.3566,-0.1048,-0.7673,0.0,0.0,0.0
2026-06-09T14:42:21.161,L,0.0,0.0,67.6,69.0,100.0,1.354,-0.1074,-0.7693,0.0,0.0,0.0
2026-06-09T14:42:21.167,L,60.0,0.0,67.6,69.9,100.0,1.3419,-0.1384,-0.745,0.0,0.0,0.0
2026-06-09T14:42:21.272,L,0.0,0.0,67.6,69.9,100.0,1.3421,-0.1376,-0.7444,0.0,0.0,0.0
2026-06-09T14:42:21.377,L,0.0,0.0,67.6,69.9,100.0,1.3419,-0.138,-0.7442,0.0,0.0,0.0
2026-06-09T14:42:21.482,L,0.0,0.0,67.6,69.9,100.0,1.3415,-0.1387,-0.7441,0.0,0.0,0.0
2026-06-09T14:42:21.587,L,0.0,0.0,67.6,69.9,100.0,1.3416,-0.1386,-0.7443,0.0,0.0,0.0
2026-06-09T14:42:21.692,L,0.0,0.0,67.6,70.0,100.0,1.3421,-0.1394,-0.7446,0.0,0.0,0.0
2026-06-09T14:42:21.797,L,0.0,0.0,67.6,70.0,100.0,1.3414,-0.1387,-0.7438,0.0,0.0,0.0
2026-06-09T14:42:21.902,L,0.0,0.0,67.6,70.0,100.0,1.3411,-0.1381,-0.7446,0.0,0.0,0.0
2026-06-09T14:42:22.007,L,0.0,0.0,67.6,70.0,100.0,1.3413,-0.1381,-0.745,0.0,0.0,0.0
2026-06-09T14:42:22.112,L,0.0,0.0,67.6,70.0,100.0,1.3418,-0.1381,-0.7449,0.0,0.0,0.0
2026-06-09T14:42:22.217,L,0.0,0.0,67.6,70.0,100.0,1.3415,-0.1378,-0.7455,0.0,0.0,0.0
2026-06-09T14:42:22.322,L,0.0,0.0,67.6,70.0,100.0,1.3408,-0.1389,-0.7446,0.0,0.0,0.0
2026-06-09T14:42:22.427,L,0.0,0.0,67.6,70.0,100.0,1.3408,-0.1396,-0.7462,0.0,0.0,0.0
2026-06-09T14:42:22.532,L,0.0,0.0,67.6,70.0,100.0,1.3418,-0.1394,-0.7457,0.0,0.0,0.0
2026-06-09T14:42:22.637,L,0.0,0.0,67.6,70.0,100.0,1.3419,-0.1394,-0.7459,0.0,0.0,0.0
2026-06-09T14:42:22.742,L,0.0,0.0,67.6,70.0,100.0,1.3415,-0.1391,-0.7448,0.0,0.0,0.0
2026-06-09T14:42:22.847,L,0.0,0.0,67.6,70.0,100.0,1.3417,-0.1392,-0.7466,0.0,0.0,0.0
2026-06-09T14:42:22.952,L,0.0,0.0,67.6,70.0,100.0,1.3423,-0.1383,-0.7464,0.0,0.0,0.0
2026-06-09T14:42:23.057,L,0.0,0.0,67.6,70.0,100.0,1.343,-0.1379,-0.7467,0.0,0.0,0.0
2026-06-09T14:42:23.162,L,0.0,0.0,67.6,70.0,100.0,1.343,-0.1373,-0.7462,0.0,0.0,0.0
2026-06-09T14:42:23.267,L,0.0,0.0,67.6,70.0,100.0,1.3422,-0.1376,-0.7465,0.0,0.0,0.0
2026-06-09T14:42:23.372,L,0.0,0.0,67.6,70.0,100.0,1.3424,-0.1366,-0.7477,0.0,0.0,0.0
2026-06-09T14:42:23.477,L,0.0,0.0,67.6,70.0,100.0,1.3426,-0.1366,-0.7456,0.0,0.0,0.0
2026-06-09T14:42:23.582,L,0.0,0.0,67.7,70.0,100.0,1.3434,-0.1371,-0.745,0.0,0.0,0.0
2026-06-09T14:42:23.687,L,0.0,0.0,67.7,70.0,100.0,1.3443,-0.1357,-0.7473,0.0,0.0,0.0
2026-06-09T14:42:23.792,L,0.0,0.0,67.7,70.0,100.0,1.3439,-0.1346,-0.747,0.0,0.0,0.0
2026-06-09T14:42:23.897,L,0.0,0.0,67.7,70.1,100.0,1.3439,-0.1343,-0.7474,0.0,0.0,0.0
2026-06-09T14:42:24.002,L,0.0,0.0,67.7,70.1,100.0,1.3435,-0.1343,-0.7482,0.0,0.0,0.0
2026-06-09T14:42:24.107,L,0.0,0.0,67.7,70.1,100.0,1.3436,-0.1349,-0.7478,0.0,0.0,0.0
2026-06-09T14:42:24.212,L,0.0,0.0,67.7,70.1,100.0,1.3429,-0.1357,-0.7464,0.0,0.0,0.0
2026-06-09T14:42:24.317,L,0.0,0.0,67.7,70.1,100.0,1.3434,-0.1357,-0.7477,0.0,0.0,0.0
2026-06-09T14:42:24.422,L,0.0,0.0,67.7,70.1,100.0,1.3434,-0.1341,-0.7465,0.0,0.0,0.0
2026-06-09T14:42:24.527,L,0.0,0.0,67.7,70.1,100.0,1.3429,-0.1346,-0.7462,0.0,0.0,0.0
2026-06-09T14:42:24.632,L,0.0,0.0,67.7,70.1,100.0,1.3424,-0.1343,-0.7469,0.0,0.0,0.0
2026-06-09T14:42:24.737,L,0.0,0.0,67.7,70.1,100.0,1.3422,-0.1354,-0.7478,0.0,0.0,0.0
2026-06-09T14:42:24.842,L,0.0,0.0,67.7,70.1,100.0,1.3429,-0.1349,-0.7472,0.0,0.0,0.0
2026-06-09T14:42:24.947,L,0.0,0.0,67.7,70.1,100.0,1.3434,-0.135,-0.7476,0.0,0.0,0.0
2026-06-09T14:42:25.052,L,0.0,0.0,67.7,70.1,100.0,1.3427,-0.1367,-0.748,0.0,0.0,0.0
2026-06-09T14:42:25.157,L,0.0,0.0,67.7,70.1,100.0,1.3421,-0.1372,-0.7481,0.0,0.0,0.0
2026-06-09T14:42:25.262,L,0.0,0.0,67.7,70.1,100.0,1.3421,-0.1373,-0.7486,0.0,0.0,0.0
2026-06-09T14:42:25.367,L,0.0,0.0,67.7,70.1,100.0,1.3422,-0.1372,-0.7484,0.0,0.0,0.0
2026-06-09T14:42:25.472,L,0.0,0.0,67.7,70.1,100.0,1.3416,-0.1377,-0.748,0.0,0.0,0.0
2026-06-09T14:42:25.577,L,0.0,0.0,67.7,70.1,100.0,1.3415,-0.1373,-0.7489,0.0,0.0,0.0
2026-06-09T14:42:25.682,L,0.0,0.0,67.7,70.1,100.0,1.3422,-0.1381,-0.7506,0.0,0.0,0.0
2026-06-09T14:42:25.787,L,0.0,0.0,67.8,70.1,100.0,1.3425,-0.1385,-0.7496,0.0,0.0,0.0
2026-06-09T14:42:25.892,L,0.0,0.0,67.8,70.1,100.0,1.342,-0.1388,-0.7489,0.0,0.0,0.0
2026-06-09T14:42:25.997,L,0.0,0.0,67.8,70.1,100.0,1.3412,-0.1389,-0.7489,0.0,0.0,0.0
2026-06-09T14:42:26.102,L,0.0,0.0,67.8,70.1,100.0,1.3408,-0.1405,-0.7484,0.0,0.0,0.0
2026-06-09T14:42:26.207,L,0.0,0.0,67.8,70.1,100.0,1.3407,-0.1409,-0.7483,0.0,0.0,0.0
2026-06-09T14:42:26.312,L,0.0,0.0,67.8,70.1,100.0,1.3409,-0.1414,-0.7479,0.0,0.0,0.0
2026-06-09T14:42:26.417,L,0.0,0.0,67.8,70.1,100.0,1.3411,-0.1422,-0.7473,0.0,0.0,0.0
2026-06-09T14:42:26.522,L,0.0,0.0,67.8,70.1,100.0,1.341,-0.1422,-0.7484,0.0,0.0,0.0
2026-06-09T14:42:26.627,L,0.0,0.0,67.8,70.0,100.0,1.3413,-0.1429,-0.7496,0.0,0.0,0.0
2026-06-09T14:42:26.732,L,0.0,0.0,67.8,70.0,100.0,1.3415,-0.1436,-0.7499,0.0,0.0,0.0
2026-06-09T14:42:26.837,L,0.0,0.0,67.8,70.0,100.0,1.3411,-0.1441,-0.75,0.0,0.0,0.0
2026-06-09T14:42:26.942,L,0.0,0.0,67.8,70.0,100.0,1.3405,-0.1444,-0.7493,0.0,0.0,0.0
2026-06-09T14:42:27.047,L,0.0,0.0,67.8,70.0,100.0,1.3407,-0.1444,-0.7501,0.0,0.0,0.0
2026-06-09T14:42:27.152,L,0.0,0.0,67.8,70.0,100.0,1.3412,-0.144,-0.7487,0.0,0.0,0.0
2026-06-09T14:42:27.257,L,0.0,0.0,67.8,70.0,100.0,1.3413,-0.144,-0.7479,0.0,0.0,0.0
2026-06-09T14:42:27.362,L,0.0,0.0,67.8,70.0,100.0,1.3403,-0.1431,-0.7491,0.0,0.0,0.0
2026-06-09T14:42:27.467,L,0.0,0.0,67.8,70.0,100.0,1.3404,-0.1442,-0.7508,0.0,0.0,0.0
2026-06-09T14:42:27.572,L,0.0,0.0,67.8,70.0,100.0,1.3409,-0.1437,-0.7503,0.0,0.0,0.0
2026-06-09T14:42:27.677,L,0.0,0.0,67.8,70.0,100.0,1.3408,-0.1436,-0.7507,0.0,0.0,0.0
2026-06-09T14:42:27.782,L,0.0,0.0,67.7,70.0,100.0,1.3401,-0.1442,-0.7505,0.0,0.0,0.0
2026-06-09T14:42:27.887,L,0.0,0.0,67.7,70.0,100.0,1.3405,-0.1448,-0.7506,0.0,0.0,0.0
2026-06-09T14:42:27.992,L,0.0,0.0,67.7,70.0,100.0,1.3413,-0.1425,-0.7508,0.0,0.0,0.0
2026-06-09T14:42:28.097,L,0.0,0.0,67.7,70.0,100.0,1.341,-0.1435,-0.7519,0.0,0.0,0.0
2026-06-09T14:42:28.202,L,0.0,0.0,67.7,70.0,100.0,1.3403,-0.1428,-0.7523,0.0,0.0,0.0
2026-06-09T14:42:28.307,L,0.0,0.0,67.7,70.1,100.0,1.3406,-0.1424,-0.7523,0.0,0.0,0.0
2026-06-09T14:42:28.412,L,0.0,0.0,67.7,70.1,100.0,1.3414,-0.1433,-0.754,0.0,0.0,0.0
2026-06-09T14:42:28.517,L,0.0,0.0,67.7,70.0,100.0,1.3411,-0.144,-0.7531,0.0,0.0,0.0
2026-06-09T14:42:28.622,L,0.0,0.0,67.7,70.0,100.0,1.3412,-0.1444,-0.7538,0.0,0.0,0.0
2026-06-09T14:42:28.727,L,0.0,0.0,67.7,70.0,100.0,1.341,-0.1441,-0.7535,0.0,0.0,0.0
2026-06-09T14:42:28.832,L,0.0,0.0,67.7,70.0,100.0,1.3408,-0.1445,-0.7548,0.0,0.0,0.0
2026-06-09T14:42:28.937,L,0.0,0.0,67.7,70.0,100.0,1.3412,-0.1436,-0.7542,0.0,0.0,0.0
2026-06-09T14:42:29.042,L,0.0,0.0,67.7,69.9,100.0,1.3414,-0.145,-0.754,0.0,0.0,0.0
2026-06-09T14:42:29.147,L,0.0,0.0,67.7,69.9,100.0,1.3409,-0.1451,-0.7537,0.0,0.0,0.0
2026-06-09T14:42:29.252,L,0.0,0.0,67.6,69.9,100.0,1.3405,-0.1455,-0.7545,0.0,0.0,0.0
2026-06-09T14:42:29.357,L,0.0,0.0,67.6,69.9,100.0,1.3402,-0.1456,-0.7544,0.0,0.0,0.0
2026-06-09T14:42:29.462,L,0.0,0.0,67.6,69.8,100.0,1.3406,-0.1453,-0.7535,0.0,0.0,0.0
2026-06-09T14:42:29.567,L,0.0,0.0,67.6,69.8,100.0,1.3406,-0.1454,-0.7535,0.0,0.0,0.0
2026-06-09T14:42:29.672,L,0.0,0.0,67.7,69.8,100.0,1.3405,-0.1453,-0.7544,0.0,0.0,0.0
2026-06-09T14:42:29.777,L,0.0,0.0,67.7,69.8,100.0,1.3406,-0.1462,-0.7548,0.0,0.0,0.0
2026-06-09T14:42:29.882,L,0.0,0.0,67.7,69.8,100.0,1.3415,-0.1452,-0.7548,0.0,0.0,0.0
2026-06-09T14:42:29.987,L,0.0,0.0,67.7,69.8,100.0,1.3421,-0.1457,-0.7545,0.0,0.0,0.0
2026-06-09T14:42:30.092,L,0.0,0.0,67.7,69.8,100.0,1.3421,-0.1446,-0.7554,0.0,0.0,0.0
2026-06-09T14:42:30.197,L,0.0,0.0,67.7,69.8,100.0,1.3405,-0.1452,-0.7554,0.0,0.0,0.0
2026-06-09T14:42:30.302,L,0.0,0.0,67.7,69.8,100.0,1.3408,-0.1463,-0.7551,0.0,0.0,0.0
2026-06-09T14:42:30.407,L,0.0,0.0,67.7,69.7,100.0,1.3413,-0.1457,-0.7547,0.0,0.0,0.0
2026-06-09T14:42:30.512,L,0.0,0.0,67.7,69.7,100.0,1.3408,-0.1461,-0.7545,0.0,0.0,0.0
2026-06-09T14:42:30.617,L,0.0,0.0,67.7,69.7,100.0,1.3408,-0.1451,-0.7545,0.0,0.0,0.0
2026-06-09T14:42:30.722,L,0.0,0.0,67.7,69.7,100.0,1.3406,-0.146,-0.7526,0.0,0.0,0.0
2026-06-09T14:42:30.827,L,0.0,0.0,67.7,69.7,100.0,1.3406,-0.1465,-0.7532,0.0,0.0,0.0
2026-06-09T14:42:30.932,L,0.0,0.0,67.7,69.7,100.0,1.3406,-0.1463,-0.7526,0.0,0.0,0.0
2026-06-09T14:42:31.037,L,0.0,0.0,67.7,69.7,100.0,1.3406,-0.1471,-0.7522,0.0,0.0,0.0
2026-06-09T14:42:31.142,L,0.0,0.0,67.7,69.7,100.0,1.3407,-0.1471,-0.7519,0.0,0.0,0.0
2026-06-09T14:42:31.247,L,0.0,0.0,67.7,69.6,100.0,1.3405,-0.1487,-0.753,0.0,0.0,0.0
2026-06-09T14:44:42.171,M,38.8,0.0,0.0,0.0,100.0,-0.5548,-0.018,-0.7496,0.0,0.0,-6.2948
2026-06-09T14:44:42.171,M,38.7,0.0,0.0,0.0,100.0,-0.5544,-0.0177,-0.7513,0.0,0.0,-6.2771
2026-06-09T14:44:42.172,M,38.7,0.0,0.0,0.0,100.0,-0.5538,-0.0173,-0.7506,0.0,0.0,-6.3313
2026-06-09T14:44:42.172,M,38.7,0.0,0.0,0.0,100.0,-0.5542,-0.0162,-0.7505,0.0,0.0,-6.5061
2026-06-09T14:44:42.173,M,38.7,0.0,0.0,0.0,100.0,-0.5528,-0.0167,-0.7526,0.0,0.0,-6.3871
2026-06-09T14:44:42.173,M,38.8,0.0,0.0,0.0,100.0,-0.5526,-0.0167,-0.7523,0.0,0.0,-6.4861
2026-06-09T14:44:42.174,M,38.8,0.0,0.0,0.0,100.0,-0.552,-0.0144,-0.7554,0.0,0.0,-6.6042
2026-06-09T14:44:42.174,M,38.9,0.0,0.0,0.0,100.0,-0.5528,-0.0129,-0.7545,0.0,0.0,-6.6761
2026-06-09T14:44:42.174,M,39.0,0.0,0.0,0.0,100.0,-0.5537,-0.0126,-0.7555,0.0,0.0,-6.5569
2026-06-09T14:44:42.220,M,37.1,0.0,0.0,0.0,100.0,-0.5573,0.0728,-0.7468,0.0,0.0,0.0
2026-06-09T14:44:42.325,M,36.9,0.0,0.0,0.0,100.0,-0.5556,0.0705,-0.7456,0.0,0.0,0.0
2026-06-09T14:44:42.431,M,36.7,0.0,0.0,0.0,100.0,-0.5544,0.0712,-0.7463,0.0,0.0,0.0
2026-06-09T14:44:42.535,M,36.5,0.0,0.0,0.0,100.0,-0.555,0.0694,-0.7451,0.0,0.0,0.0
2026-06-09T14:44:42.641,M,36.4,0.0,0.0,0.0,100.0,-0.556,0.069,-0.7433,0.0,0.0,0.0
2026-06-09T14:44:42.745,M,36.3,0.0,0.0,0.0,100.0,-0.5545,0.0667,-0.7423,0.0,0.0,0.0
2026-06-09T14:44:42.850,M,36.3,0.0,0.0,0.0,100.0,-0.5559,0.0675,-0.7421,0.0,0.0,0.0
2026-06-09T14:44:42.955,M,36.3,0.0,0.0,0.0,100.0,-0.5567,0.0665,-0.7402,0.0,0.0,0.0
2026-06-09T14:44:43.060,M,36.3,0.0,0.0,0.0,100.0,-0.5562,0.0674,-0.74,0.0,0.0,0.0
2026-06-09T14:44:43.165,M,36.3,0.0,0.0,0.0,100.0,-0.5571,0.0697,-0.7395,0.0,0.0,0.0
2026-06-09T14:44:43.270,M,36.3,0.0,0.0,0.0,100.0,-0.5572,0.0694,-0.739,0.0,0.0,0.0
2026-06-09T14:44:43.375,M,36.2,0.0,0.0,0.0,100.0,-0.557,0.0692,-0.7406,0.0,0.0,0.0
2026-06-09T14:44:43.480,M,36.1,0.0,0.0,0.0,100.0,-0.5573,0.0707,-0.7406,0.0,0.0,0.0
2026-06-09T14:44:43.586,M,35.9,0.0,0.0,0.0,100.0,-0.5548,0.0695,-0.7412,0.0,0.0,0.0
2026-06-09T14:44:43.690,M,35.4,0.0,0.0,0.0,100.0,-0.556,0.0686,-0.7401,0.0,0.0,0.0
2026-06-09T14:44:43.795,M,35.1,0.0,0.0,0.0,100.0,-0.5572,0.0693,-0.7398,0.0,0.0,0.0
2026-06-09T14:44:43.900,M,34.5,0.0,0.0,0.0,100.0,-0.5567,0.0698,-0.7421,0.0,0.0,0.0
2026-06-09T14:44:44.005,M,34.3,0.0,0.0,0.0,100.0,-0.5574,0.0709,-0.7436,0.0,0.0,0.0
2026-06-09T14:44:44.110,M,34.1,0.0,0.0,0.0,100.0,-0.5566,0.0699,-0.745,0.0,0.0,0.0
2026-06-09T14:44:44.215,M,33.8,0.0,0.0,0.0,100.0,-0.5568,0.0688,-0.7454,0.0,0.0,0.0
2026-06-09T14:44:44.320,M,33.6,0.0,0.0,0.0,100.0,-0.5567,0.067,-0.7467,0.0,0.0,0.0
2026-06-09T14:44:44.425,M,33.3,0.0,0.0,0.0,100.0,-0.5561,0.0675,-0.7465,0.0,0.0,0.0
2026-06-09T14:44:44.530,M,32.9,0.0,0.0,0.0,100.0,-0.5559,0.0669,-0.7461,0.0,0.0,0.0
2026-06-09T14:44:44.635,M,32.5,0.0,0.0,0.0,100.0,-0.5552,0.0662,-0.7456,0.0,0.0,0.0
2026-06-09T14:44:44.740,M,32.5,0.0,0.0,0.0,100.0,-0.5553,0.0663,-0.7467,0.0,0.0,0.0
2026-06-09T14:44:44.845,M,32.7,0.0,0.0,0.0,100.0,-0.5558,0.0667,-0.7466,0.0,0.0,0.0
2026-06-09T14:44:44.950,M,32.8,0.0,0.0,0.0,100.0,-0.5569,0.0676,-0.7478,0.0,0.0,0.0
2026-06-09T14:44:45.055,M,33.0,0.0,0.0,0.0,100.0,-0.5577,0.0675,-0.7479,0.0,0.0,0.0
2026-06-09T14:44:45.160,M,33.2,0.0,0.0,0.0,100.0,-0.5577,0.0672,-0.7489,0.0,0.0,0.0
2026-06-09T14:44:45.265,M,33.3,0.0,0.0,0.0,100.0,-0.5582,0.0672,-0.7483,0.0,0.0,0.0
2026-06-09T14:44:45.370,M,33.2,0.0,0.0,0.0,100.0,-0.5581,0.0678,-0.7498,0.0,0.0,0.0
2026-06-09T14:44:45.475,M,32.8,0.0,0.0,0.0,100.0,-0.5574,0.0676,-0.7514,0.0,0.0,0.0
2026-06-09T14:44:45.580,M,32.5,0.0,0.0,0.0,100.0,-0.5575,0.0666,-0.7536,0.0,0.0,0.0
2026-06-09T14:44:45.685,M,32.2,0.0,0.0,0.0,100.0,-0.5578,0.0653,-0.7561,0.0,0.0,0.0
2026-06-09T14:44:45.790,M,32.3,0.0,0.0,0.0,100.0,-0.5581,0.0606,-0.7549,0.0,0.0,0.0
2026-06-09T14:44:45.895,M,32.0,0.0,0.0,0.0,100.0,-0.5576,0.05,-0.7551,0.0,0.0,0.0
2026-06-09T14:44:46.000,M,31.7,0.0,0.0,0.0,100.0,-0.5485,0.035,-0.7668,0.0,0.0,0.0
2026-06-09T14:44:46.105,M,31.8,0.0,0.0,0.0,100.0,-0.5488,0.021,-0.7711,0.0,0.0,0.0
2026-06-09T14:44:46.211,M,31.9,0.0,0.0,0.0,100.0,-0.5584,0.0072,-0.7715,0.0,0.0,0.0
2026-06-09T14:44:46.315,M,32.1,0.0,0.0,0.0,100.0,-0.5569,-0.0135,-0.7846,0.0,0.0,0.0
2026-06-09T14:44:46.420,M,32.5,0.0,0.0,0.0,100.0,-0.5519,-0.031,-0.7959,0.0,0.0,0.0
2026-06-09T14:44:46.525,M,33.0,0.0,0.0,0.0,100.0,-0.5487,-0.046,-0.8044,0.0,0.0,0.0
2026-06-09T14:44:46.630,M,33.5,0.0,0.0,0.0,100.0,-0.5499,-0.0588,-0.8062,0.0,0.0,0.0
2026-06-09T14:44:46.735,M,34.1,0.0,0.0,0.0,100.0,-0.5472,-0.0701,-0.8085,0.0,0.0,0.0
2026-06-09T14:44:46.840,M,34.6,0.0,0.0,0.0,100.0,-0.5445,-0.0794,-0.8133,0.0,0.0,0.0
2026-06-09T14:44:46.945,M,35.0,0.0,0.0,0.0,100.0,-0.5454,-0.0857,-0.8148,0.0,0.0,0.0
2026-06-09T14:44:47.050,M,35.4,0.0,0.0,0.0,100.0,-0.5446,-0.0893,-0.8205,0.0,0.0,0.0
2026-06-09T14:44:47.155,M,36.0,0.0,0.0,0.0,100.0,-0.5438,-0.0922,-0.826,0.0,0.0,0.0
2026-06-09T14:44:47.260,M,36.4,0.0,0.0,0.0,100.0,-0.5431,-0.0972,-0.831,0.0,0.0,0.0
2026-06-09T14:44:47.366,M,36.6,0.0,0.0,0.0,100.0,-0.5432,-0.0993,-0.8333,0.0,0.0,0.0
2026-06-09T14:44:47.471,M,36.7,0.0,0.0,0.0,100.0,-0.5423,-0.1006,-0.8366,0.0,0.0,0.0
2026-06-09T14:44:47.575,M,36.4,0.0,0.0,0.0,100.0,-0.5423,-0.1022,-0.8379,0.0,0.0,0.0
2026-06-09T14:44:47.681,M,36.4,0.0,0.0,0.0,100.0,-0.5421,-0.1032,-0.8385,0.0,0.0,0.0
2026-06-09T14:44:47.785,M,36.7,0.0,0.0,0.0,100.0,-0.5411,-0.1047,-0.8393,0.0,0.0,0.0
2026-06-09T14:44:47.890,M,37.0,0.0,3.0,0.0,100.0,-0.5423,-0.1071,-0.8379,0.0,0.0,0.0
2026-06-09T14:44:47.995,M,37.4,0.0,5.7,0.0,100.0,-0.5417,-0.1056,-0.8378,0.0,0.0,0.0
2026-06-09T14:44:48.100,M,38.0,0.0,8.0,0.0,100.0,-0.5411,-0.1064,-0.8371,0.0,0.0,0.0
2026-06-09T14:44:48.205,M,38.5,0.0,9.9,0.0,100.0,-0.543,-0.1031,-0.8364,0.0,0.0,0.0
2026-06-09T14:44:48.310,M,39.1,0.0,11.9,0.0,100.0,-0.5448,-0.1024,-0.8335,0.0,0.0,0.0
2026-06-09T14:44:48.415,M,39.7,0.0,13.6,0.0,100.0,-0.5455,-0.1003,-0.8309,0.0,0.0,0.0
2026-06-09T14:44:48.520,M,40.3,0.0,15.0,0.0,100.0,-0.546,-0.0972,-0.8309,0.0,0.0,0.0
2026-06-09T14:44:48.626,M,41.0,0.0,16.2,0.0,100.0,-0.5447,-0.0982,-0.8296,0.0,0.0,0.0
2026-06-09T14:44:48.730,M,41.6,0.0,16.4,0.0,100.0,-0.5441,-0.0981,-0.8306,0.0,0.0,0.0
2026-06-09T14:44:48.835,M,42.2,0.0,15.6,0.0,100.0,-0.5453,-0.0973,-0.8271,0.0,0.0,0.0
2026-06-09T14:44:48.940,M,42.8,0.0,15.1,0.0,100.0,-0.5428,-0.0955,-0.8284,0.0,0.0,0.0
2026-06-09T14:44:49.045,M,43.3,0.0,14.8,0.0,100.0,-0.5439,-0.0939,-0.829,0.0,0.0,0.0
2026-06-09T14:44:49.151,M,43.8,0.0,14.0,0.0,100.0,-0.5483,-0.0923,-0.8246,0.0,0.0,0.0
2026-06-09T14:44:49.255,M,44.2,0.0,12.8,0.0,100.0,-0.5476,-0.0919,-0.8215,0.0,0.0,0.0
2026-06-09T14:44:49.360,M,44.5,0.0,11.5,0.0,100.0,-0.5466,-0.0872,-0.8221,0.0,0.0,0.0
2026-06-09T14:44:49.465,M,44.8,0.0,10.2,0.0,100.0,-0.5498,-0.0862,-0.8159,0.0,0.0,0.0
2026-06-09T14:44:49.570,M,45.2,0.0,9.1,0.0,100.0,-0.5492,-0.0851,-0.8146,0.0,0.0,0.0
2026-06-09T14:44:49.676,M,45.5,0.0,8.0,0.0,100.0,-0.5498,-0.0828,-0.8133,0.0,0.0,0.0
2026-06-09T14:44:49.781,M,45.8,0.0,7.1,0.0,100.0,-0.5482,-0.0819,-0.8149,0.0,0.0,0.0
2026-06-09T14:44:49.885,M,45.8,0.0,6.2,0.0,100.0,-0.5506,-0.0798,-0.8151,0.0,0.0,0.0
2026-06-09T14:44:49.990,M,45.1,0.0,5.5,0.0,100.0,-0.5499,-0.0772,-0.8189,0.0,0.0,0.0
2026-06-09T14:44:50.095,M,43.7,0.0,4.8,0.0,100.0,-0.5496,-0.0777,-0.8162,0.0,0.0,0.0
2026-06-09T14:44:50.200,M,42.4,0.0,4.3,0.0,100.0,-0.5482,-0.0776,-0.8159,0.0,0.0,0.0
2026-06-09T14:44:50.305,M,41.1,0.0,3.7,0.0,100.0,-0.5492,-0.0779,-0.8135,0.0,0.0,0.0
2026-06-09T14:44:50.410,M,40.1,0.0,3.3,0.0,100.0,-0.5493,-0.0779,-0.8142,0.0,0.0,0.0
2026-06-09T14:44:50.515,M,39.2,0.0,0.0,0.0,100.0,-0.5508,-0.0775,-0.8126,0.0,0.0,0.0
2026-06-09T14:44:50.620,M,38.5,0.0,0.0,0.0,100.0,-0.5504,-0.0776,-0.8128,0.0,0.0,0.0
2026-06-09T14:44:50.725,M,38.0,0.0,0.0,0.0,100.0,-0.5489,-0.0786,-0.8148,0.0,0.0,0.0
2026-06-09T14:44:50.830,M,37.5,0.0,0.0,0.0,100.0,-0.5489,-0.0794,-0.8117,0.0,0.0,0.0
2026-06-09T14:44:50.935,M,37.2,0.0,0.0,0.0,100.0,-0.5483,-0.0788,-0.8109,0.0,0.0,0.0
2026-06-09T14:44:51.040,M,37.0,0.0,0.0,0.0,100.0,-0.5491,-0.0782,-0.8115,0.0,0.0,0.0
2026-06-09T14:44:51.145,M,36.8,0.0,0.0,0.0,100.0,-0.5479,-0.0794,-0.8117,0.0,0.0,0.0
2026-06-09T14:44:51.251,M,36.8,0.0,0.0,0.0,100.0,-0.5486,-0.0782,-0.8117,0.0,0.0,0.0
2026-06-09T14:44:51.355,M,36.6,0.0,0.0,0.0,100.0,-0.549,-0.077,-0.813,0.0,0.0,0.0
2026-06-09T14:44:51.460,M,36.3,0.0,0.0,0.0,100.0,-0.5477,-0.0787,-0.8145,0.0,0.0,0.0
2026-06-09T14:44:51.565,M,36.3,0.0,0.0,0.0,100.0,-0.5491,-0.0772,-0.8158,0.0,0.0,0.0
2026-06-09T14:44:51.670,M,36.5,0.0,0.0,0.0,100.0,-0.5486,-0.0774,-0.815,0.0,0.0,0.0
2026-06-09T14:44:51.775,M,36.5,0.0,0.0,0.0,100.0,-0.5489,-0.0784,-0.8157,0.0,0.0,0.0
2026-06-09T14:44:51.881,M,36.5,0.0,0.0,0.0,100.0,-0.5509,-0.0775,-0.8155,0.0,0.0,0.0
2026-06-09T14:44:51.985,M,36.4,0.0,0.0,0.0,100.0,-0.551,-0.078,-0.8145,0.0,0.0,0.0
2026-06-09T14:44:52.091,M,36.2,0.0,0.0,0.0,100.0,-0.549,-0.0756,-0.8201,0.0,0.0,0.0
2026-06-09T14:44:52.195,M,36.5,0.0,0.0,0.0,100.0,-0.55,-0.0774,-0.8186,0.0,0.0,0.02026-06-09T14:53:44.909,N,60.5,0.0,0.0,58.0,89.9,-0.3886,0.1837,-0.271,0.0,0.0,0.0
2026-06-09T14:53:44.910,N,60.4,0.0,0.0,57.6,89.8,-0.3886,0.1837,-0.2734,0.0,0.0,0.0
2026-06-09T14:53:44.910,N,60.4,0.0,0.0,57.4,89.6,-0.389,0.1825,-0.2733,0.0,0.0,0.0
2026-06-09T14:53:44.911,N,60.4,0.0,0.0,57.3,89.6,-0.3888,0.1816,-0.2763,0.0,0.0,0.0
2026-06-09T14:53:44.911,N,60.3,0.0,0.0,57.2,89.5,-0.3911,0.1813,-0.2782,0.0,0.0,0.0
2026-06-09T14:53:44.911,N,60.3,0.0,0.0,57.2,89.5,-0.3916,0.1789,-0.2801,0.0,0.0,0.0
2026-06-09T14:53:44.912,N,60.3,0.0,0.0,57.1,89.8,-0.3948,0.1773,-0.2807,0.0,0.0,0.0
2026-06-09T14:53:44.912,N,60.3,0.0,0.0,56.9,89.9,-0.3963,0.1752,-0.281,0.0,0.0,0.0
2026-06-09T14:53:44.913,N,60.2,0.0,0.0,56.8,89.6,-0.3969,0.1742,-0.2813,0.0,0.0,0.0
2026-06-09T14:53:45.014,N,58.1,0.0,0.0,54.8,80.4,-0.4107,0.1453,-0.3057,0.0,0.0,0.0
2026-06-09T14:53:45.119,N,58.1,0.0,0.0,54.8,79.9,-0.4107,0.1445,-0.3061,0.0,0.0,0.0
2026-06-09T14:53:45.224,N,58.1,0.0,0.0,54.9,79.9,-0.411,0.1426,-0.3062,0.0,0.0,0.0
2026-06-09T14:53:45.330,N,58.2,0.0,0.0,54.9,80.1,-0.4111,0.141,-0.3051,0.0,0.0,0.0
2026-06-09T14:53:45.434,N,58.1,0.0,0.0,54.9,80.3,-0.4117,0.1406,-0.3051,0.0,0.0,0.0
2026-06-09T14:53:45.539,N,58.0,0.0,0.0,54.7,80.5,-0.413,0.1411,-0.3062,0.0,0.0,0.0
2026-06-09T14:53:45.644,N,57.9,0.0,0.0,54.6,80.6,-0.4127,0.1403,-0.3059,0.0,0.0,0.0
2026-06-09T14:53:45.749,N,57.9,0.0,0.0,54.5,80.8,-0.4125,0.1397,-0.3059,0.0,0.0,0.0
2026-06-09T14:53:45.854,N,57.7,0.0,0.0,54.4,80.9,-0.4125,0.1388,-0.3051,0.0,0.0,0.0
2026-06-09T14:53:45.959,N,57.6,0.0,0.0,54.3,81.0,-0.4132,0.1387,-0.3051,0.0,0.0,0.0
2026-06-09T14:53:46.064,N,57.6,0.0,0.0,54.3,81.2,-0.4133,0.1383,-0.3046,0.0,0.0,0.0
2026-06-09T14:53:46.169,N,57.5,0.0,0.0,54.3,81.4,-0.4132,0.1375,-0.3036,0.0,0.0,0.0
2026-06-09T14:53:46.274,N,57.4,0.0,0.0,54.3,81.6,-0.4127,0.1363,-0.3037,0.0,0.0,0.0
2026-06-09T14:53:46.379,N,57.3,0.0,0.0,54.4,81.9,-0.4139,0.1351,-0.3016,0.0,0.0,0.0
2026-06-09T14:53:46.484,N,57.3,0.0,0.0,54.5,82.1,-0.4134,0.1354,-0.3014,0.0,0.0,0.0
2026-06-09T14:53:46.589,N,57.2,0.0,0.0,54.6,82.5,-0.4127,0.1355,-0.3023,0.0,0.0,0.0
2026-06-09T14:53:46.694,N,57.2,0.0,0.0,54.7,83.0,-0.4127,0.1364,-0.3029,0.0,0.0,0.0
2026-06-09T14:53:46.799,N,57.2,0.0,0.0,54.7,83.5,-0.4136,0.1364,-0.3033,0.0,0.0,0.0
2026-06-09T14:53:46.905,N,57.1,0.0,0.0,54.8,83.8,-0.4137,0.1361,-0.3036,0.0,0.0,0.0
2026-06-09T14:53:47.009,N,57.1,0.0,0.0,54.9,84.4,-0.4129,0.1354,-0.3035,0.0,0.0,0.0
2026-06-09T14:53:47.114,N,57.0,0.0,0.0,55.0,85.2,-0.4125,0.1367,-0.3059,0.0,0.0,0.0
2026-06-09T14:53:47.219,N,57.0,0.0,0.0,55.1,85.9,-0.4132,0.136,-0.3057,0.0,0.0,0.0
2026-06-09T14:53:47.324,N,56.9,0.0,0.0,55.1,86.5,-0.4131,0.1361,-0.3058,0.0,0.0,0.0
2026-06-09T14:53:47.429,N,56.8,0.0,0.0,55.2,87.1,-0.4124,0.1366,-0.3042,0.0,0.0,0.0
2026-06-09T14:53:47.534,N,56.7,0.0,0.0,55.3,87.6,-0.4134,0.137,-0.304,0.0,0.0,0.0
2026-06-09T14:53:47.640,N,56.7,0.0,0.0,55.4,88.1,-0.4138,0.1366,-0.3049,0.0,0.0,0.0
2026-06-09T14:53:47.744,N,56.7,0.0,0.0,55.5,88.0,-0.4137,0.1359,-0.307,0.0,0.0,0.0
2026-06-09T14:53:47.849,N,56.7,0.0,0.0,55.5,88.0,-0.4134,0.1355,-0.3072,0.0,0.0,0.0
2026-06-09T14:53:47.954,N,56.6,0.0,0.0,55.6,87.3,-0.4132,0.1359,-0.3066,0.0,0.0,0.0
2026-06-09T14:53:48.060,N,56.7,0.0,0.0,55.6,86.2,-0.4141,0.1362,-0.3052,0.0,0.0,0.0
2026-06-09T14:53:48.164,N,56.7,0.0,0.0,55.6,86.0,-0.4146,0.1362,-0.304,0.0,0.0,0.0
2026-06-09T14:53:48.269,N,56.9,0.0,0.0,55.5,86.1,-0.4147,0.1365,-0.3031,0.0,0.0,0.0
2026-06-09T14:53:48.374,N,57.1,0.0,0.0,55.4,86.5,-0.4136,0.1368,-0.3045,0.0,0.0,0.0
2026-06-09T14:53:48.479,N,57.4,0.0,0.0,55.4,87.3,-0.4148,0.1384,-0.304,0.0,0.0,0.0
2026-06-09T14:53:48.584,N,57.6,0.0,0.0,55.3,88.4,-0.4153,0.1386,-0.3041,0.0,0.0,0.0
2026-06-09T14:53:48.689,N,57.8,0.0,0.0,55.3,89.5,-0.4157,0.139,-0.3034,0.0,0.0,0.0
2026-06-09T14:53:48.794,N,57.9,0.0,0.0,55.3,90.7,-0.4158,0.1384,-0.3023,0.0,0.0,0.0
2026-06-09T14:53:48.899,N,57.9,0.0,0.0,55.3,91.8,-0.4145,0.1389,-0.3039,0.0,0.0,0.0
2026-06-09T14:53:49.004,N,58.0,0.0,0.0,55.3,92.9,-0.4146,0.1396,-0.3046,0.0,0.0,0.0
2026-06-09T14:53:49.109,N,58.1,0.0,0.0,55.3,94.0,-0.4139,0.1403,-0.3071,0.0,0.0,0.0
2026-06-09T14:53:49.214,N,58.1,0.0,0.0,55.3,95.2,-0.4124,0.1397,-0.3084,0.0,0.0,0.0
2026-06-09T14:53:49.320,N,58.2,0.0,0.0,55.3,96.4,-0.4125,0.1392,-0.3079,0.0,0.0,0.0
2026-06-09T14:53:49.424,N,58.2,0.0,0.0,55.3,97.1,-0.4122,0.1383,-0.3069,0.0,0.0,0.0
2026-06-09T14:53:49.529,N,58.4,0.0,0.0,55.2,97.5,-0.4123,0.1388,-0.3067,0.0,0.0,0.0
2026-06-09T14:53:49.634,N,58.5,0.0,0.0,55.2,97.6,-0.4119,0.1379,-0.3062,0.0,0.0,0.0
2026-06-09T14:53:49.739,N,58.7,0.0,0.0,55.1,97.2,-0.4115,0.1384,-0.3069,0.0,0.0,0.0
2026-06-09T14:53:49.844,N,58.8,0.0,0.0,55.0,96.0,-0.4124,0.1385,-0.3063,0.0,0.0,0.0
2026-06-09T14:53:49.949,N,58.9,0.0,0.0,55.0,94.8,-0.413,0.1386,-0.3068,0.0,0.0,0.0
2026-06-09T14:53:50.054,N,58.9,0.0,0.0,55.1,93.6,-0.4135,0.1388,-0.3063,0.0,0.0,0.0
2026-06-09T14:53:50.159,N,58.9,0.0,0.0,55.1,92.4,-0.4139,0.1393,-0.3053,0.0,0.0,0.0
2026-06-09T14:53:50.264,N,58.9,0.0,0.0,55.1,91.3,-0.4149,0.1396,-0.3032,0.0,0.0,0.0
2026-06-09T14:53:50.370,N,58.8,0.0,0.0,55.0,90.3,-0.4146,0.1391,-0.3029,0.0,0.0,0.0
2026-06-09T14:53:50.474,N,58.7,0.0,0.0,55.0,89.2,-0.4149,0.1386,-0.3034,0.0,0.0,0.0
2026-06-09T14:53:50.579,N,58.6,0.0,0.0,55.4,88.3,-0.4152,0.138,-0.3043,0.0,0.0,0.0
2026-06-09T14:53:50.684,N,58.5,0.0,0.0,55.8,87.3,-0.4146,0.1382,-0.3049,0.0,0.0,0.0
2026-06-09T14:53:50.789,N,58.5,0.0,0.0,56.3,86.3,-0.4139,0.1388,-0.3046,0.0,0.0,0.0
2026-06-09T14:53:50.894,N,58.5,0.0,0.0,56.8,85.2,-0.4137,0.1395,-0.3048,0.0,0.0,0.0
2026-06-09T14:53:50.999,N,58.4,0.0,0.0,57.3,84.0,-0.4133,0.1391,-0.3058,0.0,0.0,0.0
2026-06-09T14:53:51.104,N,58.3,0.0,0.0,57.8,82.9,-0.4137,0.1387,-0.3062,0.0,0.0,0.0
2026-06-09T14:53:51.209,N,58.3,0.0,0.0,58.3,83.0,-0.4131,0.1381,-0.3056,0.0,0.0,0.0
2026-06-09T14:53:51.314,N,58.2,0.0,0.0,58.7,83.3,-0.4131,0.138,-0.3049,0.0,0.0,0.0
2026-06-09T14:53:51.419,N,58.3,0.0,0.0,59.1,82.8,-0.4128,0.1386,-0.3056,0.0,0.0,0.0
2026-06-09T14:53:51.524,N,58.3,0.0,0.0,59.4,83.0,-0.4123,0.1389,-0.3069,0.0,0.0,0.0
2026-06-09T14:53:51.629,N,58.4,0.0,0.0,59.6,83.4,-0.4132,0.1375,-0.306,0.0,0.0,0.0
2026-06-09T14:53:51.734,N,58.5,0.0,0.0,59.8,84.0,-0.4128,0.1376,-0.3066,0.0,0.0,0.0
2026-06-09T14:53:51.839,N,58.5,0.0,0.0,59.9,84.0,-0.4112,0.137,-0.3069,0.0,0.0,0.0
2026-06-09T14:53:51.944,N,58.5,0.0,0.0,60.0,83.9,-0.4117,0.1369,-0.3053,0.0,0.0,0.0
2026-06-09T14:53:52.049,N,58.4,0.0,0.0,60.1,83.3,-0.4126,0.1372,-0.3063,0.0,0.0,0.0
2026-06-09T14:53:52.154,N,58.3,0.0,0.0,60.2,83.6,-0.4135,0.1378,-0.3076,0.0,0.0,0.0
2026-06-09T14:53:52.259,N,58.2,0.0,0.0,60.2,84.3,-0.414,0.1374,-0.3061,0.0,0.0,0.0
2026-06-09T14:53:52.364,N,58.2,0.0,0.0,60.3,85.2,-0.4137,0.1381,-0.3056,0.0,0.0,0.0
2026-06-09T14:53:52.469,N,58.1,0.0,0.0,60.3,86.2,-0.4135,0.1381,-0.3061,0.0,0.0,0.0
2026-06-09T14:53:52.574,N,58.0,0.0,0.0,60.4,87.2,-0.4151,0.1381,-0.3049,0.0,0.0,0.0
2026-06-09T14:53:52.680,N,58.0,0.0,0.0,60.4,88.2,-0.4144,0.1387,-0.3058,0.0,0.0,0.0
2026-06-09T14:53:52.784,N,58.0,0.0,0.0,60.4,89.2,-0.4147,0.1389,-0.3059,0.0,0.0,0.0
2026-06-09T14:53:52.889,N,58.0,0.0,0.0,60.5,89.7,-0.4154,0.1392,-0.3056,0.0,0.0,0.0
2026-06-09T14:53:52.994,N,58.0,0.0,0.0,60.5,89.9,-0.4148,0.1393,-0.3066,0.0,0.0,0.0
2026-06-09T14:53:53.099,N,58.0,0.0,0.0,60.5,89.2,-0.4155,0.1392,-0.3056,0.0,0.0,0.0
2026-06-09T14:53:53.204,N,58.0,0.0,0.0,60.5,88.2,-0.4155,0.139,-0.3054,0.0,0.0,0.0
2026-06-09T14:53:53.309,N,58.0,0.0,0.0,60.6,87.8,-0.4153,0.1393,-0.305,0.0,0.0,0.0
2026-06-09T14:53:53.414,N,58.1,0.0,0.0,60.6,87.9,-0.4142,0.1386,-0.3049,0.0,0.0,0.0
2026-06-09T14:53:53.519,N,58.1,0.0,0.0,60.6,87.7,-0.4144,0.1395,-0.305,0.0,0.0,0.0
2026-06-09T14:53:53.624,N,58.2,0.0,0.0,60.6,87.9,-0.4155,0.1397,-0.3035,0.0,0.0,0.0
2026-06-09T14:53:53.729,N,58.1,0.0,0.0,60.6,88.2,-0.4157,0.1398,-0.3048,0.0,0.0,0.0
2026-06-09T14:53:53.834,N,58.1,0.0,0.0,60.6,88.2,-0.4157,0.1403,-0.3056,0.0,0.0,0.0
2026-06-09T14:53:53.940,N,58.0,0.0,0.0,60.6,88.0,-0.4149,0.1412,-0.307,0.0,0.0,0.0
2026-06-09T14:53:54.044,N,57.9,0.0,0.0,60.5,87.3,-0.4144,0.1407,-0.3067,0.0,0.0,0.0
2026-06-09T14:53:54.149,N,57.8,0.0,0.0,60.5,87.0,-0.4145,0.1405,-0.3084,0.0,0.0,0.0
2026-06-09T14:53:54.254,N,57.7,0.0,0.0,60.5,86.3,-0.4156,0.1388,-0.3073,0.0,0.0,0.0
2026-06-09T14:53:54.359,N,57.6,0.0,0.0,60.5,86.6,-0.4155,0.1384,-0.3075,0.0,0.0,0.0
2026-06-09T14:53:54.464,N,57.6,0.0,0.0,60.5,87.2,-0.4154,0.1379,-0.3074,0.0,0.0,0.0
2026-06-09T14:53:54.569,N,57.7,0.0,0.0,60.5,88.0,-0.4156,0.1373,-0.3072,0.0,0.0,0.0
2026-06-09T14:53:54.674,N,57.7,0.0,0.0,60.6,88.0,-0.416,0.1365,-0.3084,0.0,0.0,0.0
2026-06-09T14:53:54.779,N,57.7,0.0,0.0,60.6,88.4,-0.417,0.1339,-0.3086,0.0,0.0,0.0
2026-06-09T14:53:54.884,N,57.7,0.0,0.0,60.6,88.5,-0.4179,0.1326,-0.3087,0.0,0.0,0.0
2026-06-09T14:53:54.990,N,57.7,0.0,0.0,60.6,88.1,-0.4186,0.1324,-0.31,0.0,0.0,0.0
2026-06-09T14:56:05.399,O,76.4,83.5,0.0,0.0,0.0,1.2,-0.1687,-0.3316,0.0,0.0,0.0
2026-06-09T14:56:05.400,O,76.5,83.7,0.0,0.0,0.0,1.1996,-0.1692,-0.3312,0.0,0.0,0.0
2026-06-09T14:56:05.400,O,76.5,83.9,0.0,0.0,0.0,1.1992,-0.1694,-0.3308,0.0,0.0,0.0
2026-06-09T14:56:05.401,O,76.5,84.0,0.0,0.0,0.0,1.2,-0.1697,-0.3311,0.0,0.0,0.0
2026-06-09T14:56:05.401,O,76.6,84.1,0.0,0.0,0.0,1.2021,-0.1678,-0.3287,0.0,0.0,0.0
2026-06-09T14:56:05.401,O,76.6,84.1,0.0,0.0,0.0,1.2016,-0.1672,-0.3271,0.0,0.0,0.0
2026-06-09T14:56:05.402,O,76.6,84.2,0.0,0.0,0.0,1.1987,-0.169,-0.331,0.0,0.0,0.0
2026-06-09T14:56:05.402,O,76.4,84.2,0.0,0.0,0.0,1.1964,-0.1714,-0.332,0.0,0.0,0.0
2026-06-09T14:56:05.403,O,76.2,84.3,0.0,0.0,0.0,1.1966,-0.1747,-0.3328,0.0,0.0,0.0
2026-06-09T14:56:05.524,O,77.5,82.9,0.0,0.0,0.0,1.1969,-0.1891,-0.3394,0.0,0.0,0.0
2026-06-09T14:56:05.629,O,77.3,82.8,0.0,0.0,0.0,1.1972,-0.1893,-0.3383,0.0,0.0,0.0
2026-06-09T14:56:05.734,O,77.1,82.9,0.0,0.0,0.0,1.1975,-0.1886,-0.3383,0.0,0.0,0.0
2026-06-09T14:56:05.839,O,77.0,83.2,0.0,0.0,0.0,1.1974,-0.1886,-0.3401,0.0,0.0,0.0
2026-06-09T14:56:05.944,O,76.9,83.5,0.0,0.0,0.0,1.1976,-0.1883,-0.3407,0.0,0.0,0.0
2026-06-09T14:56:06.049,O,76.9,83.8,0.0,0.0,0.0,1.1975,-0.1868,-0.3411,0.0,0.0,0.0
2026-06-09T14:56:06.154,O,76.8,84.1,0.0,0.0,0.0,1.1976,-0.1872,-0.3411,0.0,0.0,0.0
2026-06-09T14:56:06.259,O,76.8,84.4,0.0,0.0,0.0,1.1977,-0.1873,-0.3412,0.0,0.0,0.0
2026-06-09T14:56:06.365,O,76.7,84.7,0.0,0.0,0.0,1.1976,-0.1881,-0.3421,0.0,0.0,0.0
2026-06-09T14:56:06.469,O,76.4,85.1,0.0,0.0,0.0,1.1973,-0.1882,-0.3413,0.0,0.0,0.0
2026-06-09T14:56:06.575,O,76.1,85.4,0.0,0.0,0.0,1.198,-0.1885,-0.3414,0.0,0.0,0.0
2026-06-09T14:56:06.679,O,75.8,85.7,0.0,0.0,0.0,1.1976,-0.1895,-0.341,0.0,0.0,0.0
2026-06-09T14:56:06.784,O,75.5,86.0,0.0,0.0,0.0,1.1978,-0.1892,-0.3405,0.0,0.0,0.0
2026-06-09T14:56:06.889,O,75.2,86.2,0.0,0.0,0.0,1.1978,-0.19,-0.3397,0.0,0.0,0.0
2026-06-09T14:56:06.994,O,75.0,86.4,0.0,0.0,0.0,1.1977,-0.1908,-0.3405,0.0,0.0,0.0
2026-06-09T14:56:07.099,O,74.9,86.5,0.0,0.0,0.0,1.1974,-0.1909,-0.3409,0.0,0.0,0.0
2026-06-09T14:56:07.204,O,74.7,86.6,0.0,0.0,0.0,1.1973,-0.1909,-0.3416,0.0,0.0,0.0
2026-06-09T14:56:07.310,O,74.7,86.6,0.0,0.0,0.0,1.1973,-0.1918,-0.3413,0.0,0.0,0.0
2026-06-09T14:56:07.414,O,74.7,86.6,0.0,0.0,0.0,1.1967,-0.1923,-0.3404,0.0,0.0,0.0
2026-06-09T14:56:07.520,O,74.8,86.7,0.0,0.0,0.0,1.1958,-0.1921,-0.3405,0.0,0.0,0.0
2026-06-09T14:56:07.625,O,74.9,86.9,0.0,0.0,0.0,1.1956,-0.1924,-0.3404,0.0,0.0,0.0
2026-06-09T14:56:07.729,O,75.0,87.2,0.0,0.0,0.0,1.1949,-0.191,-0.3402,0.0,0.0,0.0
2026-06-09T14:56:07.835,O,75.1,87.5,0.0,0.0,0.0,1.1939,-0.1922,-0.3394,0.0,0.0,0.0
2026-06-09T14:56:07.940,O,75.2,87.8,0.0,0.0,0.0,1.1946,-0.1925,-0.3397,0.0,0.0,0.0
2026-06-09T14:56:08.044,O,75.3,88.1,0.0,0.0,0.0,1.1949,-0.1928,-0.3395,0.0,0.0,0.0
2026-06-09T14:56:08.149,O,75.4,88.3,0.0,0.0,0.0,1.1953,-0.1924,-0.3406,0.0,0.0,0.0
2026-06-09T14:56:08.255,O,75.4,88.6,0.0,0.0,0.0,1.1954,-0.192,-0.3404,0.0,0.0,0.0
2026-06-09T14:56:08.359,O,75.3,88.7,0.0,0.0,0.0,1.1949,-0.1921,-0.3401,0.0,0.0,0.0
2026-06-09T14:56:08.465,O,75.2,88.9,0.0,0.0,0.0,1.1948,-0.1933,-0.3393,0.0,0.0,0.0
2026-06-09T14:56:08.569,O,75.1,89.0,0.0,0.0,0.0,1.1945,-0.1928,-0.3396,0.0,0.0,0.0
2026-06-09T14:56:08.674,O,75.1,88.2,0.0,0.0,0.0,1.1938,-0.1929,-0.3385,0.0,0.0,0.0
2026-06-09T14:56:08.779,O,75.2,87.1,0.0,0.0,0.0,1.1941,-0.1923,-0.3386,0.0,0.0,0.0
2026-06-09T14:56:08.885,O,75.4,86.6,0.0,0.0,0.0,1.1937,-0.192,-0.3382,0.0,0.0,0.0
2026-06-09T14:56:08.989,O,75.6,86.5,0.0,0.0,0.0,1.1935,-0.1914,-0.3373,0.0,0.0,0.0
2026-06-09T14:56:09.094,O,75.8,86.4,0.0,0.0,0.0,1.1925,-0.1917,-0.3361,0.0,0.0,0.0
2026-06-09T14:56:09.199,O,76.0,86.4,0.0,0.0,0.0,1.1918,-0.1907,-0.3361,0.0,0.0,0.0
2026-06-09T14:56:09.305,O,76.2,86.3,0.0,0.0,0.0,1.1922,-0.1907,-0.3355,0.0,0.0,0.0
2026-06-09T14:56:09.409,O,76.3,86.2,0.0,0.0,0.0,1.1924,-0.19,-0.335,0.0,0.0,0.0
2026-06-09T14:56:09.515,O,76.5,85.9,0.0,0.0,0.0,1.1919,-0.1908,-0.3348,0.0,0.0,0.0
2026-06-09T14:56:09.620,O,76.6,85.6,0.0,0.0,0.0,1.1918,-0.1915,-0.333,0.0,0.0,0.0
2026-06-09T14:56:09.724,O,76.8,85.2,0.0,0.0,0.0,1.1923,-0.1913,-0.3333,0.0,0.0,0.0
2026-06-09T14:56:09.830,O,76.9,84.6,0.0,0.0,0.0,1.192,-0.1926,-0.3331,0.0,0.0,0.0
2026-06-09T14:56:09.935,O,77.1,84.0,0.0,0.0,0.0,1.1913,-0.1943,-0.3316,0.0,0.0,0.0
2026-06-09T14:56:10.039,O,77.3,83.6,0.0,0.0,0.0,1.1905,-0.1954,-0.3317,0.0,0.0,0.0
2026-06-09T14:56:10.145,O,77.5,83.4,0.0,0.0,0.0,1.1894,-0.1966,-0.331,0.0,0.0,0.0
2026-06-09T14:56:10.250,O,77.6,83.3,0.0,0.0,0.0,1.1891,-0.197,-0.3309,0.0,0.0,0.0
2026-06-09T14:56:10.355,O,77.8,83.4,0.0,0.0,0.0,1.189,-0.1969,-0.331,0.0,0.0,0.0
2026-06-09T14:56:10.460,O,78.0,83.4,0.0,0.0,0.0,1.1887,-0.1976,-0.3306,0.0,0.0,0.0
2026-06-09T14:56:10.565,O,78.2,83.5,0.0,0.0,0.0,1.1883,-0.1984,-0.3324,0.0,0.0,0.0
2026-06-09T14:56:10.670,O,78.3,83.6,0.0,0.0,0.0,1.1877,-0.1988,-0.3314,0.0,0.0,0.0
2026-06-09T14:56:10.775,O,78.4,83.8,0.0,0.0,0.0,1.1878,-0.1986,-0.3302,0.0,0.0,0.0
2026-06-09T14:56:10.880,O,78.5,84.1,0.0,0.0,0.0,1.1875,-0.1996,-0.33,0.0,0.0,0.0
2026-06-09T14:56:10.985,O,78.5,84.5,0.0,0.0,0.0,1.1868,-0.1997,-0.3321,0.0,0.0,0.0
2026-06-09T14:56:11.089,O,78.6,85.0,0.0,0.0,0.0,1.1866,-0.2001,-0.3311,0.0,0.0,0.0
2026-06-09T14:56:11.195,O,78.6,85.4,0.0,0.0,0.0,1.1868,-0.2003,-0.3317,0.0,0.0,0.0
2026-06-09T14:56:11.300,O,78.6,85.9,0.0,0.0,0.0,1.1866,-0.2007,-0.3313,0.0,0.0,0.0
2026-06-09T14:56:11.405,O,78.6,86.3,0.0,0.0,0.0,1.1869,-0.2004,-0.3319,0.0,0.0,0.0
2026-06-09T14:56:11.510,O,78.6,86.6,0.0,0.0,0.0,1.1871,-0.2002,-0.3335,0.0,0.0,0.0
2026-06-09T14:56:11.615,O,78.6,86.9,0.0,0.0,0.0,1.1875,-0.2004,-0.3325,0.0,0.0,0.0
2026-06-09T14:56:11.720,O,78.5,87.3,0.0,0.0,0.0,1.1876,-0.2007,-0.3332,0.0,0.0,0.0
2026-06-09T14:56:11.825,O,78.4,87.6,0.0,0.0,0.0,1.1874,-0.2001,-0.3337,0.0,0.0,0.0
2026-06-09T14:56:11.930,O,78.4,88.0,0.0,0.0,0.0,1.1876,-0.201,-0.3335,0.0,0.0,0.0
2026-06-09T14:56:12.035,O,78.3,88.4,0.0,0.0,0.0,1.1876,-0.2012,-0.3342,0.0,0.0,0.0
2026-06-09T14:56:12.140,O,78.2,88.8,0.0,0.0,0.0,1.1878,-0.2017,-0.3335,0.0,0.0,0.0
2026-06-09T14:56:12.245,O,78.2,89.2,0.0,0.0,0.0,1.1883,-0.2011,-0.3343,0.0,0.0,0.0
2026-06-09T14:56:12.350,O,78.1,89.5,0.0,0.0,0.0,1.1886,-0.201,-0.3347,0.0,0.0,0.0
2026-06-09T14:56:12.455,O,78.1,89.8,0.0,0.0,0.0,1.1884,-0.2012,-0.3337,0.0,0.0,0.0
2026-06-09T14:56:12.560,O,78.1,90.1,0.0,0.0,0.0,1.1888,-0.2021,-0.3331,0.0,0.0,0.0
2026-06-09T14:56:12.665,O,78.0,90.4,0.0,0.0,0.0,1.1887,-0.2031,-0.3333,0.0,0.0,0.0
2026-06-09T14:56:12.770,O,78.0,90.7,0.0,0.0,0.0,1.1888,-0.204,-0.3334,0.0,0.0,0.0
2026-06-09T14:56:12.875,O,77.9,91.0,0.0,0.0,0.0,1.1884,-0.2043,-0.3332,0.0,0.0,0.0
2026-06-09T14:56:12.980,O,77.9,91.2,0.0,0.0,0.0,1.1886,-0.2053,-0.3332,0.0,0.0,0.0
2026-06-09T14:56:13.085,O,77.8,91.4,0.0,0.0,0.0,1.1884,-0.2051,-0.3338,0.0,0.0,0.0
2026-06-09T14:56:13.190,O,77.8,91.6,0.0,0.0,0.0,1.1882,-0.2051,-0.3344,0.0,0.0,0.0
2026-06-09T14:56:13.295,O,77.7,91.7,0.0,0.0,0.0,1.1879,-0.2063,-0.3337,0.0,0.0,0.0
2026-06-09T14:56:13.400,O,77.6,91.7,0.0,0.0,0.0,1.1876,-0.2076,-0.3346,0.0,0.0,0.0
2026-06-09T14:56:13.505,O,77.5,91.6,0.0,0.0,0.0,1.1875,-0.2088,-0.3355,0.0,0.0,0.0
2026-06-09T14:56:13.610,O,77.4,91.5,0.0,0.0,0.0,1.1873,-0.2097,-0.3366,0.0,0.0,0.0
2026-06-09T14:56:13.715,O,77.3,91.4,0.0,0.0,0.0,1.1868,-0.2104,-0.337,0.0,0.0,0.0
2026-06-09T14:56:13.820,O,77.1,91.3,0.0,0.0,0.0,1.1869,-0.2113,-0.3371,0.0,0.0,0.0
2026-06-09T14:56:13.925,O,77.0,91.3,0.0,0.0,0.0,1.1859,-0.2113,-0.3358,0.0,0.0,0.0
2026-06-09T14:56:14.030,O,76.9,91.2,0.0,0.0,0.0,1.1849,-0.2121,-0.3348,0.0,0.0,0.0
2026-06-09T14:56:14.135,O,76.8,91.1,0.0,0.0,0.0,1.1835,-0.213,-0.335,0.0,0.0,0.0
2026-06-09T14:56:14.240,O,76.7,90.9,0.0,0.0,0.0,1.1853,-0.2117,-0.3313,0.0,0.0,0.0
2026-06-09T14:56:14.345,O,76.7,90.6,0.0,0.0,0.0,1.1856,-0.2109,-0.3309,0.0,0.0,0.0
2026-06-09T14:56:14.450,O,76.6,90.4,0.0,0.0,0.0,1.1842,-0.2129,-0.3325,0.0,0.0,0.0
2026-06-09T14:56:14.555,O,76.5,90.3,0.0,0.0,0.0,1.1826,-0.2141,-0.3324,0.0,0.0,0.0
2026-06-09T14:56:14.660,O,76.5,90.1,0.0,0.0,0.0,1.1819,-0.2155,-0.3331,0.0,0.0,0.0
2026-06-09T14:56:14.765,O,76.5,90.0,0.0,0.0,0.0,1.1836,-0.2141,-0.3368,0.0,0.0,0.0
2026-06-09T14:56:14.870,O,76.4,89.8,0.0,0.0,0.0,1.1825,-0.2154,-0.3323,0.0,0.0,0.0
2026-06-09T14:56:14.975,O,76.4,89.6,0.0,0.0,0.0,1.1806,-0.2167,-0.3313,0.0,0.0,0.0
2026-06-09T14:56:15.080,O,76.4,89.5,0.0,0.0,0.0,1.1806,-0.2175,-0.3336,0.0,0.0,0.0
2026-06-09T14:56:15.185,O,76.5,89.4,0.0,0.0,0.0,1.1801,-0.2184,-0.3341,0.0,0.0,0.0
2026-06-09T14:56:15.290,O,76.5,89.4,0.0,0.0,0.0,1.1795,-0.2191,-0.3347,0.0,0.0,0.0
2026-06-09T14:56:15.395,O,76.5,89.3,0.0,0.0,0.0,1.1799,-0.2197,-0.3336,0.0,0.0,0.0
2026-06-09T14:56:15.500,O,76.5,89.2,0.0,0.0,0.0,1.1804,-0.2206,-0.3319,0.0,0.0,0.02026-06-09T15:00:47.934,P,38.4,0.0,0.0,0.0,100.0,1.3544,-0.0381,-1.0412,0.0,0.0,0.0
2026-06-09T15:00:47.934,P,38.3,0.0,0.0,0.0,100.0,1.353,-0.0365,-1.0442,0.0,0.0,0.0
2026-06-09T15:00:47.935,P,38.3,0.0,0.0,0.0,100.0,1.3519,-0.04,-1.0467,0.0,0.0,0.0
2026-06-09T15:00:47.935,P,38.4,0.0,0.0,0.0,100.0,1.3505,-0.0391,-1.0487,0.0,0.0,0.0
2026-06-09T15:00:47.936,P,38.6,0.0,0.0,0.0,100.0,1.3493,-0.0377,-1.0525,0.0,0.0,0.0
2026-06-09T15:00:47.936,P,38.8,0.0,0.0,0.0,100.0,1.35,-0.0438,-1.0561,0.0,0.0,0.0
2026-06-09T15:00:47.936,P,39.0,0.0,0.0,0.0,100.0,1.349,-0.0422,-1.0603,0.0,0.0,0.0
2026-06-09T15:00:47.937,P,39.3,0.0,0.0,0.0,100.0,1.3479,-0.0415,-1.0707,0.0,0.0,0.0
2026-06-09T15:00:47.937,P,39.6,0.0,0.0,0.0,100.0,1.3486,-0.0434,-1.0727,0.0,0.0,0.0
2026-06-09T15:00:48.086,P,41.5,0.0,0.0,0.0,100.0,1.3469,-0.0513,-1.0716,0.0,0.0,0.0
2026-06-09T15:00:48.191,P,41.6,0.0,0.0,0.0,100.0,1.3475,-0.0527,-1.0703,0.0,0.0,0.0
2026-06-09T15:00:48.296,P,41.6,0.0,0.0,0.0,100.0,1.3479,-0.054,-1.07,0.0,0.0,0.0
2026-06-09T15:00:48.401,P,41.6,0.0,0.0,0.0,100.0,1.3481,-0.0552,-1.0693,0.0,0.0,0.0
2026-06-09T15:00:48.506,P,41.6,0.0,0.0,0.0,100.0,1.3478,-0.0554,-1.0688,0.0,0.0,0.0
2026-06-09T15:00:48.611,P,41.5,0.0,0.0,0.0,100.0,1.3476,-0.0564,-1.0688,0.0,0.0,0.0
2026-06-09T15:00:48.716,P,41.5,0.0,0.0,0.0,100.0,1.3487,-0.056,-1.068,0.0,0.0,0.0
2026-06-09T15:00:48.821,P,41.4,0.0,0.0,0.0,100.0,1.3492,-0.0571,-1.0684,0.0,0.0,0.0
2026-06-09T15:00:48.926,P,41.3,0.0,0.0,0.0,100.0,1.3495,-0.0547,-1.07,0.0,0.0,0.0
2026-06-09T15:00:49.031,P,41.2,0.0,0.0,0.0,100.0,1.35,-0.0528,-1.0724,0.0,0.0,0.0
2026-06-09T15:00:49.136,P,41.2,0.0,0.0,0.0,100.0,1.3503,-0.0537,-1.0724,0.0,0.0,0.0
2026-06-09T15:00:49.241,P,41.1,0.0,0.0,0.0,100.0,1.3499,-0.0544,-1.0724,0.0,0.0,0.0
2026-06-09T15:00:49.346,P,41.1,0.0,0.0,0.0,100.0,1.3495,-0.0548,-1.0713,0.0,0.0,0.0
2026-06-09T15:00:49.451,P,41.1,0.0,0.0,0.0,100.0,1.3493,-0.0541,-1.0732,0.0,0.0,0.0
2026-06-09T15:00:49.556,P,41.1,0.0,0.0,0.0,100.0,1.3486,-0.0532,-1.0737,0.0,0.0,0.0
2026-06-09T15:00:49.661,P,41.1,0.0,0.0,0.0,100.0,1.3481,-0.0536,-1.072,0.0,0.0,0.0
2026-06-09T15:00:49.766,P,41.1,0.0,0.0,0.0,100.0,1.3469,-0.0536,-1.073,0.0,0.0,0.0
2026-06-09T15:00:49.871,P,41.1,0.0,0.0,0.0,100.0,1.347,-0.0545,-1.0739,0.0,0.0,0.0
2026-06-09T15:00:49.976,P,41.1,0.0,0.0,0.0,100.0,1.3467,-0.0541,-1.0737,0.0,0.0,0.0
2026-06-09T15:00:50.081,P,41.1,0.0,0.0,0.0,100.0,1.3472,-0.0547,-1.0738,0.0,0.0,0.0
2026-06-09T15:00:50.186,P,41.2,0.0,0.0,0.0,100.0,1.3483,-0.0572,-1.0735,0.0,0.0,0.0
2026-06-09T15:00:50.291,P,41.2,0.0,0.0,0.0,100.0,1.3487,-0.0576,-1.0723,0.0,0.0,0.0
2026-06-09T15:00:50.396,P,41.2,0.0,0.0,0.0,100.0,1.3495,-0.0585,-1.0725,0.0,0.0,0.0
2026-06-09T15:00:50.501,P,41.2,0.0,0.0,0.0,100.0,1.3497,-0.0581,-1.0737,0.0,0.0,0.0
2026-06-09T15:00:50.606,P,41.3,0.0,0.0,0.0,100.0,1.3503,-0.0577,-1.0737,0.0,0.0,0.0
2026-06-09T15:00:50.711,P,41.3,0.0,0.0,0.0,100.0,1.3509,-0.0572,-1.0754,0.0,0.0,0.0
2026-06-09T15:00:50.816,P,41.3,0.0,0.0,0.0,100.0,1.3514,-0.0581,-1.0767,0.0,0.0,0.0
2026-06-09T15:00:50.921,P,41.3,0.0,0.0,0.0,100.0,1.3519,-0.0571,-1.0777,0.0,0.0,0.0
2026-06-09T15:00:51.026,P,41.4,0.0,0.0,0.0,100.0,1.3525,-0.058,-1.0777,0.0,0.0,0.0
2026-06-09T15:00:51.131,P,41.4,0.0,0.0,0.0,100.0,1.3527,-0.058,-1.0787,0.0,0.0,0.0
2026-06-09T15:00:51.236,P,41.4,0.0,0.0,0.0,100.0,1.3526,-0.0566,-1.0791,0.0,0.0,0.0
2026-06-09T15:00:51.341,P,41.4,0.0,0.0,0.0,100.0,1.3525,-0.0566,-1.079,0.0,0.0,0.0
2026-06-09T15:00:51.446,P,41.4,0.0,0.0,0.0,100.0,1.3517,-0.0554,-1.0799,0.0,0.0,0.0
2026-06-09T15:00:51.551,P,41.4,0.0,0.0,0.0,100.0,1.3514,-0.0546,-1.0795,0.0,0.0,0.0
2026-06-09T15:00:51.656,P,41.4,0.0,0.0,0.0,100.0,1.351,-0.0554,-1.0802,0.0,0.0,0.0
2026-06-09T15:00:51.761,P,41.4,0.0,0.0,0.0,100.0,1.35,-0.0552,-1.0808,0.0,0.0,0.0
2026-06-09T15:00:51.866,P,41.4,0.0,0.0,0.0,100.0,1.3497,-0.0532,-1.0816,0.0,0.0,0.0
2026-06-09T15:00:51.971,P,41.4,0.0,0.0,0.0,100.0,1.3495,-0.0544,-1.0794,0.0,0.0,0.0
2026-06-09T15:00:52.076,P,41.5,0.0,0.0,0.0,100.0,1.3488,-0.0553,-1.0805,0.0,0.0,0.0
2026-06-09T15:00:52.181,P,41.5,0.0,0.0,0.0,100.0,1.3481,-0.0554,-1.0798,0.0,0.0,0.0
2026-06-09T15:00:52.286,P,41.5,0.0,0.0,0.0,100.0,1.3479,-0.0577,-1.0784,0.0,0.0,0.0
2026-06-09T15:00:52.391,P,41.5,0.0,0.0,0.0,100.0,1.3488,-0.0606,-1.0772,0.0,0.0,0.0
2026-06-09T15:00:52.496,P,41.6,0.0,0.0,0.0,100.0,1.3503,-0.0619,-1.0765,0.0,0.0,0.0
2026-06-09T15:00:52.601,P,41.6,0.0,0.0,0.0,100.0,1.3507,-0.0601,-1.0768,0.0,0.0,0.0
2026-06-09T15:00:52.706,P,41.6,0.0,0.0,0.0,100.0,1.3513,-0.0598,-1.078,0.0,0.0,0.0
2026-06-09T15:00:52.811,P,41.7,0.0,0.0,0.0,100.0,1.3525,-0.0599,-1.0783,0.0,0.0,0.0
2026-06-09T15:00:52.916,P,41.7,0.0,0.0,0.0,100.0,1.3525,-0.058,-1.0793,0.0,0.0,0.0
2026-06-09T15:00:53.021,P,41.8,0.0,0.0,0.0,100.0,1.3525,-0.0555,-1.0815,0.0,0.0,0.0
2026-06-09T15:00:53.126,P,41.8,0.0,0.0,0.0,100.0,1.3519,-0.0535,-1.082,0.0,0.0,0.0
2026-06-09T15:00:53.231,P,41.8,0.0,0.0,0.0,100.0,1.3515,-0.0532,-1.0826,0.0,0.0,0.0
